File: src/from/parser/__tests__/data/tga/perkinElmer.csv
Time,Unsubtracted Weight,Baseline Weight,Program Temperature,Sample Temperature,Sample Purge Flow,Balance Purge Flow, ,,
0,2.92929,0,30,30,20,40, ,30,100
0.166667,2.928516,0,30,30,20,40, ,30,99.9736
0.333333,2.928,0,30,30.01,20,40, ,30.01,99.956
0.5,2.927484,0,30,30,20,40, ,30,99.9383
0.666667,2.927742,0,30,30,20,40, ,30,99.9472
0.833333,2.926968,0,30,29.99,20,40, ,29.99,99.9207
1,2.926452,0,30,30,20,40, ,30,99.9031
1.166667,2.926452,0,30,30.01,20,40, ,30.01,99.9031
1.333333,2.926452,0,30,30,20,40, ,30,99.9031
1.5,2.925677,0,30,30,20,40, ,30,99.8767
1.666667,2.925161,0,30,30,20,40, ,30,99.859
1.833333,2.924645,0,30,30,20,40, ,30,99.8414
2,2.923355,0,30,29.99,20,40, ,29.99,99.7974
2.166667,2.923355,0,30,30.01,20,40, ,30.01,99.7974
2.333333,2.923355,0,30,30,20,40, ,30,99.7974
2.5,2.922581,0,30,30,20,40, ,30,99.771
2.666667,2.922065,0,30,30,20,40, ,30,99.7534
2.833333,2.921548,0,30,30,20,40, ,30,99.7357
3,2.92129,0,30,30,20,40, ,30,99.7269
3.166667,2.920774,0,30,30.01,20,40, ,30.01,99.7093
3.333333,2.920258,0,30,30,20,40, ,30,99.6917
3.5,2.92,0,30,30.01,20,40, ,30.01,99.6829
3.666667,2.919742,0,30,30,20,40, ,30,99.6741
3.833333,2.919484,0,30,30,20,40, ,30,99.6652
4,2.918968,0,30,30,20,40, ,30,99.6476
4.166667,2.91871,0,30,30,20,40, ,30,99.6388
4.333333,2.918452,0,30,30,20,40, ,30,99.63
4.5,2.917935,0,30,30.01,20,40, ,30.01,99.6124
4.666667,2.917677,0,30,29.99,20,40, ,29.99,99.6036
4.833333,2.917161,0,30,30,20,40, ,30,99.5859
5,2.917161,0,30.05,30.06,20,40, ,30.06,99.5859
5.166667,2.917161,0,30.89,30.64,20,40, ,30.64,99.5859
5.333333,2.917161,0,31.72,31.3,20,40, ,31.3,99.5859
5.5,2.916645,0,32.55,31.98,20,40, ,31.98,99.5683
5.666667,2.915871,0,33.39,32.69,20,40, ,32.69,99.5419
5.833333,2.915097,0,34.22,33.41,20,40, ,33.41,99.5155
6,2.914065,0,35.05,34.15,20,40, ,34.15,99.4802
6.166667,2.91329,0,35.89,34.9,20,40, ,34.9,99.4538
6.333333,2.912258,0,36.72,35.66,20,40, ,35.66,99.4186
6.5,2.911226,0,37.55,36.44,20,40, ,36.44,99.3833
6.666667,2.910194,0,38.39,37.25,20,40, ,37.25,99.3481
6.833333,2.909161,0,39.22,38.04,20,40, ,38.04,99.3128
7,2.908129,0,40.05,38.83,20,40, ,38.83,99.2776
7.166667,2.907097,0,40.89,39.64,20,40, ,39.64,99.2424
7.333333,2.906581,0,41.72,40.47,20,40, ,40.47,99.2248
7.5,2.905548,0,42.55,41.26,20,40, ,41.26,99.1895
7.666667,2.904258,0,43.39,42.08,20,40, ,42.08,99.1455
7.833333,2.902968,0,44.22,42.91,20,40, ,42.91,99.1014
8,2.901935,0,45.05,43.74,20,40, ,43.74,99.0662
8.166667,2.901161,0,45.89,44.57,20,40, ,44.57,99.0397
8.333333,2.900387,0,46.72,45.39,20,40, ,45.39,99.0133
8.5,2.899097,0,47.55,46.22,20,40, ,46.22,98.9693
8.666667,2.897806,0,48.39,47.05,20,40, ,47.05,98.9252
8.833333,2.896516,0,49.22,47.89,20,40, ,47.89,98.8812
9,2.895484,0,50.05,48.71,20,40, ,48.71,98.8459
9.166667,2.894194,0,50.89,49.54,20,40, ,49.54,98.8019
9.333333,2.892645,0,51.72,50.38,20,40, ,50.38,98.749
9.5,2.891355,0,52.55,51.22,20,40, ,51.22,98.705
9.666667,2.890065,0,53.39,52.05,20,40, ,52.05,98.6609
9.833333,2.888774,0,54.22,52.88,20,40, ,52.88,98.6169
10,2.887226,0,55.05,53.71,20,40, ,53.71,98.564
10.1667,2.885935,0,55.89,54.55,20,40, ,54.55,98.5199
10.3333,2.884645,0,56.72,55.39,20,40, ,55.39,98.4759
10.5,2.883097,0,57.55,56.21,20,40, ,56.21,98.4231
10.6667,2.881548,0,58.39,57.06,20,40, ,57.06,98.3702
10.8333,2.88,0,59.22,57.9,20,40, ,57.9,98.3173
11,2.878452,0,60.05,58.73,20,40, ,58.73,98.2645
11.1667,2.876903,0,60.89,59.56,20,40, ,59.56,98.2116
11.3333,2.875355,0,61.72,60.39,20,40, ,60.39,98.1588
11.5,2.873806,0,62.55,61.22,20,40, ,61.22,98.1059
11.6667,2.872,0,63.39,62.06,20,40, ,62.06,98.0442
11.8333,2.870452,0,64.22,62.9,20,40, ,62.9,97.9914
12,2.868645,0,65.05,63.74,20,40, ,63.74,97.9297
12.1667,2.866839,0,65.89,64.57,20,40, ,64.57,97.868
12.3333,2.865032,0,66.72,65.41,20,40, ,65.41,97.8064
12.5,2.863226,0,67.55,66.25,20,40, ,66.25,97.7447
12.6667,2.861419,0,68.39,67.09,20,40, ,67.09,97.683
12.8333,2.860129,0,69.22,67.92,20,40, ,67.92,97.639
13,2.858065,0,70.05,68.76,20,40, ,68.76,97.5685
13.1667,2.856,0,70.89,69.59,20,40, ,69.59,97.498
13.3333,2.854194,0,71.72,70.43,20,40, ,70.43,97.4364
13.5,2.852129,0,72.55,71.26,20,40, ,71.26,97.3659
13.6667,2.850323,0,73.39,72.1,20,40, ,72.1,97.3042
13.8333,2.848,0,74.22,72.93,20,40, ,72.93,97.2249
14,2.846452,0,75.05,73.77,20,40, ,73.77,97.1721
14.1667,2.844645,0,75.89,74.6,20,40, ,74.6,97.1104
14.3333,2.842839,0,76.72,75.43,20,40, ,75.43,97.0487
14.5,2.840774,0,77.55,76.28,20,40, ,76.28,96.9782
14.6667,2.83871,0,78.39,77.11,20,40, ,77.11,96.9078
14.8333,2.836645,0,79.22,77.94,20,40, ,77.94,96.8373
15,2.834839,0,80.05,78.78,20,40, ,78.78,96.7756
15.1667,2.832774,0,80.89,79.62,20,40, ,79.62,96.7051
15.3333,2.830968,0,81.72,80.46,20,40, ,80.46,96.6435
15.5,2.828903,0,82.55,81.28,20,40, ,81.28,96.573
15.6667,2.826839,0,83.39,82.11,20,40, ,82.11,96.5025
15.8333,2.825032,0,84.22,82.96,20,40, ,82.96,96.4408
16,2.823226,0,85.05,83.8,20,40, ,83.8,96.3792
16.1667,2.821419,0,85.89,84.63,20,40, ,84.63,96.3175
16.3333,2.819355,0,86.72,85.47,20,40, ,85.47,96.247
16.5,2.81729,0,87.55,86.29,20,40, ,86.29,96.1765
16.6667,2.815484,0,88.39,87.13,20,40, ,87.13,96.1149
16.8333,2.813677,0,89.22,87.97,20,40, ,87.97,96.0532
17,2.811871,0,90.05,88.8,20,40, ,88.8,95.9916
17.1667,2.810065,0,90.89,89.64,20,40, ,89.64,95.9299
17.3333,2.808516,0,91.72,90.47,20,40, ,90.47,95.877
17.5,2.806452,0,92.55,91.3,20,40, ,91.3,95.8066
17.6667,2.804645,0,93.39,92.13,20,40, ,92.13,95.7449
17.8333,2.803097,0,94.22,92.99,20,40, ,92.99,95.692
18,2.80129,0,95.05,93.81,20,40, ,93.81,95.6303
18.1667,2.799742,0,95.89,94.65,20,40, ,94.65,95.5775
18.3333,2.797935,0,96.72,95.48,20,40, ,95.48,95.5158
18.5,2.796387,0,97.55,96.31,20,40, ,96.31,95.463
18.6667,2.794839,0,98.39,97.15,20,40, ,97.15,95.4101
18.8333,2.793032,0,99.22,97.99,20,40, ,97.99,95.3484
19,2.791484,0,100.05,98.83,20,40, ,98.83,95.2956
19.1667,2.789935,0,100.89,99.64,20,40, ,99.64,95.2427
19.3333,2.788645,0,101.72,100.49,20,40, ,100.49,95.1987
19.5,2.787097,0,102.55,101.32,20,40, ,101.32,95.1458
19.6667,2.785548,0,103.39,102.17,20,40, ,102.17,95.0929
19.8333,2.784258,0,104.22,102.98,20,40, ,102.98,95.0489
20,2.782968,0,105.05,103.83,20,40, ,103.83,95.0049
20.1667,2.781677,0,105.89,104.66,20,40, ,104.66,94.9608
20.3333,2.780387,0,106.72,105.49,20,40, ,105.49,94.9168
20.5,2.779097,0,107.55,106.32,20,40, ,106.32,94.8727
20.6667,2.777806,0,108.39,107.16,20,40, ,107.16,94.8286
20.8333,2.776516,0,109.22,107.99,20,40, ,107.99,94.7846
21,2.775226,0,110.05,108.83,20,40, ,108.83,94.7406
21.1667,2.774194,0,110.89,109.66,20,40, ,109.66,94.7053
21.3333,2.773161,0,111.72,110.49,20,40, ,110.49,94.6701
21.5,2.771871,0,112.55,111.33,20,40, ,111.33,94.626
21.6667,2.770839,0,113.39,112.16,20,40, ,112.16,94.5908
21.8333,2.769548,0,114.22,113,20,40, ,113,94.5467
22,2.768516,0,115.05,113.83,20,40, ,113.83,94.5115
22.1667,2.767484,0,115.89,114.66,20,40, ,114.66,94.4763
22.3333,2.76671,0,116.72,115.49,20,40, ,115.49,94.4498
22.5,2.765677,0,117.55,116.33,20,40, ,116.33,94.4146
22.6667,2.764645,0,118.39,117.18,20,40, ,117.18,94.3794
22.8333,2.763613,0,119.22,117.99,20,40, ,117.99,94.3441
23,2.762839,0,120.05,118.82,20,40, ,118.82,94.3177
23.1667,2.762065,0,120.89,119.66,20,40, ,119.66,94.2913
23.3333,2.761032,0,121.72,120.49,20,40, ,120.49,94.256
23.5,2.760258,0,122.55,121.34,20,40, ,121.34,94.2296
23.6667,2.759484,0,123.39,122.16,20,40, ,122.16,94.2032
23.8333,2.758452,0,124.22,123,20,40, ,123,94.1679
24,2.757419,0,125.05,123.83,20,40, ,123.83,94.1327
24.1667,2.756645,0,125.89,124.66,20,40, ,124.66,94.1063
24.3333,2.755871,0,126.72,125.49,20,40, ,125.49,94.0798
24.5,2.755097,0,127.55,126.32,20,40, ,126.32,94.0534
24.6667,2.754323,0,128.39,127.16,20,40, ,127.16,94.027
24.8333,2.753548,0,129.22,127.98,20,40, ,127.98,94.0005
25,2.752774,0,130.05,128.82,20,40, ,128.82,93.9741
25.1667,2.752,0,130.89,129.66,20,40, ,129.66,93.9477
25.3333,2.751226,0,131.72,130.48,20,40, ,130.48,93.9213
25.5,2.75071,0,132.55,131.32,20,40, ,131.32,93.9036
25.6667,2.749677,0,133.39,132.15,20,40, ,132.15,93.8684
25.8333,2.748903,0,134.22,132.98,20,40, ,132.98,93.842
26,2.748129,0,135.05,133.82,20,40, ,133.82,93.8155
26.1667,2.747355,0,135.89,134.64,20,40, ,134.64,93.7891
26.3333,2.746581,0,136.72,135.48,20,40, ,135.48,93.7627
26.5,2.745806,0,137.55,136.3,20,40, ,136.3,93.7362
26.6667,2.745032,0,138.39,137.14,20,40, ,137.14,93.7098
26.8333,2.744258,0,139.22,137.97,20,40, ,137.97,93.6834
27,2.743226,0,140.05,138.8,20,40, ,138.8,93.6482
27.1667,2.742452,0,140.89,139.63,20,40, ,139.63,93.6217
27.3333,2.741419,0,141.72,140.47,20,40, ,140.47,93.5865
27.5,2.740645,0,142.55,141.3,20,40, ,141.3,93.56
27.6667,2.739613,0,143.39,142.13,20,40, ,142.13,93.5248
27.8333,2.738581,0,144.22,142.95,20,40, ,142.95,93.4896
28,2.738065,0,145.05,143.79,20,40, ,143.79,93.472
28.1667,2.73729,0,145.89,144.61,20,40, ,144.61,93.4455
28.3333,2.736516,0,146.72,145.45,20,40, ,145.45,93.4191
28.5,2.735742,0,147.55,146.27,20,40, ,146.27,93.3927
28.6667,2.73471,0,148.39,147.11,20,40, ,147.11,93.3574
28.8333,2.733677,0,149.22,147.93,20,40, ,147.93,93.3222
29,2.732645,0,150.05,148.77,20,40, ,148.77,93.2869
29.1667,2.731613,0,150.89,149.58,20,40, ,149.58,93.2517
29.3333,2.730839,0,151.72,150.43,20,40, ,150.43,93.2253
29.5,2.729806,0,152.55,151.25,20,40, ,151.25,93.19
29.6667,2.728774,0,153.39,152.08,20,40, ,152.08,93.1548
29.8333,2.727742,0,154.22,152.91,20,40, ,152.91,93.1196
30,2.72671,0,155.05,153.74,20,40, ,153.74,93.0843
30.1667,2.725677,0,155.89,154.57,20,40, ,154.57,93.0491
30.3333,2.724645,0,156.72,155.42,20,40, ,155.42,93.0138
30.5,2.723355,0,157.55,156.24,20,40, ,156.24,92.9698
30.6667,2.722323,0,158.39,157.09,20,40, ,157.09,92.9346
30.8333,2.72129,0,159.22,157.92,20,40, ,157.92,92.8993
31,2.72,0,160.05,158.75,20,40, ,158.75,92.8553
31.1667,2.71871,0,160.89,159.58,20,40, ,159.58,92.8112
31.3333,2.717419,0,161.72,160.43,20,40, ,160.43,92.7672
31.5,2.716129,0,162.55,161.26,20,40, ,161.26,92.7231
31.6667,2.715097,0,163.39,162.09,20,40, ,162.09,92.6879
31.8333,2.713806,0,164.22,162.93,20,40, ,162.93,92.6438
32,2.712516,0,165.05,163.76,20,40, ,163.76,92.5998
32.1667,2.711226,0,165.89,164.6,20,40, ,164.6,92.5557
32.3333,2.709935,0,166.72,165.44,20,40, ,165.44,92.5117
32.5,2.708645,0,167.55,166.27,20,40, ,166.27,92.4676
32.6667,2.707613,0,168.39,167.1,20,40, ,167.1,92.4324
32.8333,2.706065,0,169.22,167.93,20,40, ,167.93,92.3796
33,2.704516,0,170.05,168.77,20,40, ,168.77,92.3267
33.1667,2.703226,0,170.89,169.61,20,40, ,169.61,92.2826
33.3333,2.701935,0,171.72,170.44,20,40, ,170.44,92.2386
33.5,2.700645,0,172.55,171.27,20,40, ,171.27,92.1945
33.6667,2.699355,0,173.39,172.11,20,40, ,172.11,92.1505
33.8333,2.698065,0,174.22,172.95,20,40, ,172.95,92.1064
34,2.696516,0,175.05,173.78,20,40, ,173.78,92.0536
34.1667,2.695226,0,175.89,174.61,20,40, ,174.61,92.0095
34.3333,2.693677,0,176.72,175.46,20,40, ,175.46,91.9567
34.5,2.692129,0,177.55,176.28,20,40, ,176.28,91.9038
34.6667,2.690581,0,178.39,177.12,20,40, ,177.12,91.851
34.8333,2.68929,0,179.22,177.95,20,40, ,177.95,91.8069
35,2.687742,0,180.05,178.79,20,40, ,178.79,91.754
35.1667,2.686194,0,180.89,179.63,20,40, ,179.63,91.7012
35.3333,2.684387,0,181.72,180.45,20,40, ,180.45,91.6395
35.5,2.683355,0,182.55,181.31,20,40, ,181.31,91.6043
35.6667,2.681806,0,183.39,182.13,20,40, ,182.13,91.5514
35.8333,2.680258,0,184.22,182.96,20,40, ,182.96,91.4986
36,2.67871,0,185.05,183.81,20,40, ,183.81,91.4457
36.1667,2.676903,0,185.89,184.63,20,40, ,184.63,91.384
36.3333,2.675613,0,186.72,185.48,20,40, ,185.48,91.34
36.5,2.674065,0,187.55,186.3,20,40, ,186.3,91.2871
36.6667,2.672258,0,188.39,187.15,20,40, ,187.15,91.2255
36.8333,2.67071,0,189.22,187.98,20,40, ,187.98,91.1726
37,2.669161,0,190.05,188.81,20,40, ,188.81,91.1197
37.1667,2.667613,0,190.89,189.65,20,40, ,189.65,91.0669
37.3333,2.666065,0,191.72,190.48,20,40, ,190.48,91.014
37.5,2.664516,0,192.55,191.32,20,40, ,191.32,90.9612
37.6667,2.662968,0,193.39,192.15,20,40, ,192.15,90.9083
37.8333,2.661677,0,194.22,192.99,20,40, ,192.99,90.8642
38,2.659871,0,195.05,193.82,20,40, ,193.82,90.8026
38.1667,2.658581,0,195.89,194.66,20,40, ,194.66,90.7585
38.3333,2.657032,0,196.72,195.49,20,40, ,195.49,90.7057
38.5,2.655484,0,197.55,196.32,20,40, ,196.32,90.6528
38.6667,2.653677,0,198.39,197.16,20,40, ,197.16,90.5911
38.8333,2.652387,0,199.22,197.99,20,40, ,197.99,90.5471
39,2.650839,0,200.05,198.83,20,40, ,198.83,90.4942
39.1667,2.64929,0,200.89,199.67,20,40, ,199.67,90.4414
39.3333,2.647742,0,201.72,200.5,20,40, ,200.5,90.3885
39.5,2.646194,0,202.55,201.34,20,40, ,201.34,90.3357
39.6667,2.644903,0,203.39,202.18,20,40, ,202.18,90.2916
39.8333,2.643355,0,204.22,203.01,20,40, ,203.01,90.2388
40,2.641806,0,205.05,203.85,20,40, ,203.85,90.1859
40.1667,2.640258,0,205.89,204.68,20,40, ,204.68,90.133
40.3333,2.63871,0,206.72,205.51,20,40, ,205.51,90.0802
40.5,2.637161,0,207.55,206.35,20,40, ,206.35,90.0273
40.6667,2.635613,0,208.39,207.18,20,40, ,207.18,89.9745
40.8333,2.634323,0,209.22,208.02,20,40, ,208.02,89.9304
41,2.632774,0,210.05,208.86,20,40, ,208.86,89.8775
41.1667,2.631484,0,210.89,209.69,20,40, ,209.69,89.8335
41.3333,2.629935,0,211.72,210.52,20,40, ,210.52,89.7806
41.5,2.628387,0,212.55,211.36,20,40, ,211.36,89.7278
41.6667,2.627097,0,213.39,212.2,20,40, ,212.2,89.6837
41.8333,2.625806,0,214.22,213.02,20,40, ,213.02,89.6397
42,2.624516,0,215.05,213.86,20,40, ,213.86,89.5956
42.1667,2.623226,0,215.89,214.7,20,40, ,214.7,89.5516
42.3333,2.621935,0,216.72,215.53,20,40, ,215.53,89.5075
42.5,2.620387,0,217.55,216.37,20,40, ,216.37,89.4547
42.6667,2.619097,0,218.39,217.2,20,40, ,217.2,89.4106
42.8333,2.617806,0,219.22,218.04,20,40, ,218.04,89.3666
43,2.616516,0,220.05,218.87,20,40, ,218.87,89.3225
43.1667,2.615484,0,220.89,219.71,20,40, ,219.71,89.2873
43.3333,2.614452,0,221.72,220.54,20,40, ,220.54,89.2521
43.5,2.613161,0,222.55,221.38,20,40, ,221.38,89.208
43.6667,2.611871,0,223.39,222.22,20,40, ,222.22,89.164
43.8333,2.610839,0,224.22,223.06,20,40, ,223.06,89.1287
44,2.609548,0,225.05,223.88,20,40, ,223.88,89.0847
44.1667,2.608516,0,225.89,224.72,20,40, ,224.72,89.0494
44.3333,2.607484,0,226.72,225.56,20,40, ,225.56,89.0142
44.5,2.606452,0,227.55,226.39,20,40, ,226.39,88.979
44.6667,2.605419,0,228.39,227.23,20,40, ,227.23,88.9437
44.8333,2.604387,0,229.22,228.06,20,40, ,228.06,88.9085
45,2.603355,0,230.05,228.89,20,40, ,228.89,88.8732
45.1667,2.602323,0,230.89,229.73,20,40, ,229.73,88.838
45.3333,2.601548,0,231.72,230.57,20,40, ,230.57,88.8116
45.5,2.600516,0,232.55,231.4,20,40, ,231.4,88.7763
45.6667,2.599742,0,233.39,232.24,20,40, ,232.24,88.7499
45.8333,2.59871,0,234.22,233.07,20,40, ,233.07,88.7147
46,2.597677,0,235.05,233.92,20,40, ,233.92,88.6794
46.1667,2.596903,0,235.89,234.74,20,40, ,234.74,88.653
46.3333,2.596129,0,236.72,235.57,20,40, ,235.57,88.6266
46.5,2.595355,0,237.55,236.42,20,40, ,236.42,88.6001
46.6667,2.594839,0,238.39,237.24,20,40, ,237.24,88.5825
46.8333,2.594065,0,239.22,238.09,20,40, ,238.09,88.5561
47,2.59329,0,240.05,238.92,20,40, ,238.92,88.5296
47.1667,2.592516,0,240.89,239.76,20,40, ,239.76,88.5032
47.3333,2.592,0,241.72,240.59,20,40, ,240.59,88.4856
47.5,2.591226,0,242.55,241.42,20,40, ,241.42,88.4592
47.6667,2.59071,0,243.39,242.26,20,40, ,242.26,88.4416
47.8333,2.590194,0,244.22,243.09,20,40, ,243.09,88.424
48,2.589419,0,245.05,243.92,20,40, ,243.92,88.3975
48.1667,2.589161,0,245.89,244.77,20,40, ,244.77,88.3887
48.3333,2.588645,0,246.72,245.59,20,40, ,245.59,88.3711
48.5,2.588129,0,247.55,246.43,20,40, ,246.43,88.3535
48.6667,2.587355,0,248.39,247.27,20,40, ,247.27,88.327
48.8333,2.587097,0,249.22,248.11,20,40, ,248.11,88.3182
49,2.586581,0,250.05,248.95,20,40, ,248.95,88.3006
49.1667,2.586065,0,250.89,249.78,20,40, ,249.78,88.283
49.3333,2.585806,0,251.72,250.61,20,40, ,250.61,88.2742
49.5,2.58529,0,252.55,251.45,20,40, ,251.45,88.2565
49.6667,2.585032,0,253.39,252.27,20,40, ,252.27,88.2477
49.8333,2.584516,0,254.22,253.11,20,40, ,253.11,88.2301
50,2.584258,0,255.05,253.95,20,40, ,253.95,88.2213
50.1667,2.583742,0,255.89,254.79,20,40, ,254.79,88.2037
50.3333,2.583484,0,256.72,255.62,20,40, ,255.62,88.1949
50.5,2.583226,0,257.55,256.45,20,40, ,256.45,88.1861
50.6667,2.582968,0,258.39,257.29,20,40, ,257.29,88.1773
50.8333,2.58271,0,259.22,258.13,20,40, ,258.13,88.1685
51,2.582452,0,260.05,258.97,20,40, ,258.97,88.1597
51.1667,2.582452,0,260.89,259.8,20,40, ,259.8,88.1597
51.3333,2.581935,0,261.72,260.63,20,40, ,260.63,88.142
51.5,2.581677,0,262.55,261.46,20,40, ,261.46,88.1332
51.6667,2.581419,0,263.39,262.3,20,40, ,262.3,88.1244
51.8333,2.581419,0,264.22,263.14,20,40, ,263.14,88.1244
52,2.581161,0,265.05,263.97,20,40, ,263.97,88.1156
52.1667,2.581161,0,265.89,264.8,20,40, ,264.8,88.1156
52.3333,2.580903,0,266.72,265.64,20,40, ,265.64,88.1068
52.5,2.580903,0,267.55,266.48,20,40, ,266.48,88.1068
52.6667,2.580903,0,268.39,267.32,20,40, ,267.32,88.1068
52.8333,2.580645,0,269.22,268.15,20,40, ,268.15,88.098
53,2.580387,0,270.05,268.98,20,40, ,268.98,88.0892
53.1667,2.580129,0,270.89,269.82,20,40, ,269.82,88.0804
53.3333,2.579871,0,271.72,270.66,20,40, ,270.66,88.0715
53.5,2.579871,0,272.55,271.49,20,40, ,271.49,88.0715
53.6667,2.579613,0,273.39,272.32,20,40, ,272.32,88.0627
53.8333,2.579613,0,274.22,273.16,20,40, ,273.16,88.0627
54,2.579613,0,275.05,274,20,40, ,274,88.0627
54.1667,2.579355,0,275.89,274.83,20,40, ,274.83,88.0539
54.3333,2.579097,0,276.72,275.67,20,40, ,275.67,88.0451
54.5,2.579097,0,277.55,276.51,20,40, ,276.51,88.0451
54.6667,2.579097,0,278.39,277.34,20,40, ,277.34,88.0451
54.8333,2.578839,0,279.22,278.17,20,40, ,278.17,88.0363
55,2.578839,0,280.05,279,20,40, ,279,88.0363
55.1667,2.578839,0,280.89,279.84,20,40, ,279.84,88.0363
55.3333,2.578581,0,281.72,280.68,20,40, ,280.68,88.0275
55.5,2.578581,0,282.55,281.52,20,40, ,281.52,88.0275
55.6667,2.578581,0,283.39,282.35,20,40, ,282.35,88.0275
55.8333,2.578323,0,284.22,283.18,20,40, ,283.18,88.0187
56,2.578065,0,285.05,284.01,20,40, ,284.01,88.0099
56.1667,2.578065,0,285.89,284.85,20,40, ,284.85,88.0099
56.3333,2.578065,0,286.72,285.68,20,40, ,285.68,88.0099
56.5,2.578323,0,287.55,286.52,20,40, ,286.52,88.0187
56.6667,2.577806,0,288.39,287.35,20,40, ,287.35,88.0011
56.8333,2.577806,0,289.22,288.19,20,40, ,288.19,88.0011
57,2.577548,0,290.05,289.03,20,40, ,289.03,87.9922
57.1667,2.577548,0,290.89,289.86,20,40, ,289.86,87.9922
57.3333,2.577548,0,291.72,290.7,20,40, ,290.7,87.9922
57.5,2.577548,0,292.55,291.53,20,40, ,291.53,87.9922
57.6667,2.57729,0,293.39,292.37,20,40, ,292.37,87.9834
57.8333,2.57729,0,294.22,293.2,20,40, ,293.2,87.9834
58,2.57729,0,295.05,294.04,20,40, ,294.04,87.9834
58.1667,2.577032,0,295.89,294.87,20,40, ,294.87,87.9746
58.3333,2.576774,0,296.72,295.7,20,40, ,295.7,87.9658
58.5,2.576774,0,297.55,296.55,20,40, ,296.55,87.9658
58.6667,2.576774,0,298.39,297.38,20,40, ,297.38,87.9658
58.8333,2.576774,0,299.22,298.21,20,40, ,298.21,87.9658
59,2.576516,0,300.05,299.04,20,40, ,299.04,87.957
59.1667,2.576516,0,300.89,299.88,20,40, ,299.88,87.957
59.3333,2.576516,0,301.72,300.71,20,40, ,300.71,87.957
59.5,2.576258,0,302.55,301.55,20,40, ,301.55,87.9482
59.6667,2.576258,0,303.39,302.39,20,40, ,302.39,87.9482
59.8333,2.576258,0,304.22,303.22,20,40, ,303.22,87.9482
60,2.576,0,305.05,304.06,20,40, ,304.06,87.9394
60.1667,2.575742,0,305.89,304.9,20,40, ,304.9,87.9306
60.3333,2.575742,0,306.72,305.72,20,40, ,305.72,87.9306
60.5,2.575742,0,307.55,306.57,20,40, ,306.57,87.9306
60.6667,2.575742,0,308.39,307.4,20,40, ,307.4,87.9306
60.8333,2.575742,0,309.22,308.24,20,40, ,308.24,87.9306
61,2.575226,0,310.05,309.06,20,40, ,309.06,87.913
61.1667,2.57471,0,310.89,309.91,20,40, ,309.91,87.8954
61.3333,2.574968,0,311.72,310.73,20,40, ,310.73,87.9042
61.5,2.575484,0,312.55,311.57,20,40, ,311.57,87.9218
61.6667,2.57471,0,313.39,312.41,20,40, ,312.41,87.8954
61.8333,2.574452,0,314.22,313.25,20,40, ,313.25,87.8866
62,2.574968,0,315.05,314.09,20,40, ,314.09,87.9042
62.1667,2.575226,0,315.89,314.92,20,40, ,314.92,87.913
62.3333,2.57471,0,316.72,315.75,20,40, ,315.75,87.8954
62.5,2.57471,0,317.55,316.58,20,40, ,316.58,87.8954
62.6667,2.57471,0,318.39,317.42,20,40, ,317.42,87.8954
62.8333,2.57471,0,319.22,318.25,20,40, ,318.25,87.8954
63,2.57471,0,320.05,319.09,20,40, ,319.09,87.8954
63.1667,2.574452,0,320.89,319.92,20,40, ,319.92,87.8866
63.3333,2.574452,0,321.72,320.76,20,40, ,320.76,87.8866
63.5,2.574194,0,322.55,321.6,20,40, ,321.6,87.8777
63.6667,2.574194,0,323.39,322.43,20,40, ,322.43,87.8777
63.8333,2.573935,0,324.22,323.27,20,40, ,323.27,87.8689
64,2.573677,0,325.05,324.11,20,40, ,324.11,87.8601
64.1667,2.573935,0,325.89,324.94,20,40, ,324.94,87.8689
64.3333,2.573935,0,326.72,325.77,20,40, ,325.77,87.8689
64.5,2.573677,0,327.55,326.62,20,40, ,326.62,87.8601
64.6667,2.573677,0,328.39,327.44,20,40, ,327.44,87.8601
64.8333,2.573677,0,329.22,328.28,20,40, ,328.28,87.8601
65,2.573419,0,330.05,329.11,20,40, ,329.11,87.8513
65.1667,2.573419,0,330.89,329.95,20,40, ,329.95,87.8513
65.3333,2.573161,0,331.72,330.78,20,40, ,330.78,87.8425
65.5,2.573161,0,332.55,331.62,20,40, ,331.62,87.8425
65.6667,2.572903,0,333.39,332.45,20,40, ,332.45,87.8337
65.8333,2.573161,0,334.22,333.29,20,40, ,333.29,87.8425
66,2.572903,0,335.05,334.13,20,40, ,334.13,87.8337
66.1667,2.572903,0,335.89,334.97,20,40, ,334.97,87.8337
66.3333,2.572903,0,336.72,335.79,20,40, ,335.79,87.8337
66.5,2.572645,0,337.55,336.63,20,40, ,336.63,87.8249
66.6667,2.572645,0,338.39,337.47,20,40, ,337.47,87.8249
66.8333,2.572387,0,339.22,338.3,20,40, ,338.3,87.8161
67,2.572387,0,340.05,339.14,20,40, ,339.14,87.8161
67.1667,2.572129,0,340.89,339.97,20,40, ,339.97,87.8073
67.3333,2.572129,0,341.72,340.81,20,40, ,340.81,87.8073
67.5,2.572129,0,342.55,341.64,20,40, ,341.64,87.8073
67.6667,2.572129,0,343.39,342.48,20,40, ,342.48,87.8073
67.8333,2.571871,0,344.22,343.32,20,40, ,343.32,87.7984
68,2.571871,0,345.05,344.14,20,40, ,344.14,87.7984
68.1667,2.571871,0,345.89,344.99,20,40, ,344.99,87.7984
68.3333,2.571871,0,346.72,345.82,20,40, ,345.82,87.7984
68.5,2.571613,0,347.55,346.66,20,40, ,346.66,87.7896
68.6667,2.571355,0,348.39,347.48,20,40, ,347.48,87.7808
68.8333,2.571355,0,349.22,348.32,20,40, ,348.32,87.7808
69,2.571355,0,350.05,349.15,20,40, ,349.15,87.7808
69.1667,2.571355,0,350.89,349.99,20,40, ,349.99,87.7808
69.3333,2.571097,0,351.72,350.84,20,40, ,350.84,87.772
69.5,2.571097,0,352.55,351.67,20,40, ,351.67,87.772
69.6667,2.571097,0,353.39,352.5,20,40, ,352.5,87.772
69.8333,2.570839,0,354.22,353.34,20,40, ,353.34,87.7632
70,2.570839,0,355.05,354.18,20,40, ,354.18,87.7632
70.1667,2.570581,0,355.89,355,20,40, ,355,87.7544
70.3333,2.570065,0,356.72,355.83,20,40, ,355.83,87.7368
70.5,2.570323,0,357.55,356.66,20,40, ,356.66,87.7456
70.6667,2.570323,0,358.39,357.51,20,40, ,357.51,87.7456
70.8333,2.569806,0,359.22,358.34,20,40, ,358.34,87.7279
71,2.569548,0,360.05,359.18,20,40, ,359.18,87.7191
71.1667,2.570065,0,360.89,360.01,20,40, ,360.01,87.7368
71.3333,2.569806,0,361.72,360.85,20,40, ,360.85,87.7279
71.5,2.569806,0,362.55,361.69,20,40, ,361.69,87.7279
71.6667,2.569548,0,363.39,362.52,20,40, ,362.52,87.7191
71.8333,2.569548,0,364.22,363.35,20,40, ,363.35,87.7191
72,2.56929,0,365.05,364.2,20,40, ,364.2,87.7103
72.1667,2.56929,0,365.89,365.03,20,40, ,365.03,87.7103
72.3333,2.569032,0,366.72,365.86,20,40, ,365.86,87.7015
72.5,2.569032,0,367.55,366.69,20,40, ,366.69,87.7015
72.6667,2.568774,0,368.39,367.53,20,40, ,367.53,87.6927
72.8333,2.568516,0,369.22,368.36,20,40, ,368.36,87.6839
73,2.568516,0,370.05,369.2,20,40, ,369.2,87.6839
73.1667,2.568258,0,370.89,370.04,20,40, ,370.04,87.6751
73.3333,2.568258,0,371.72,370.88,20,40, ,370.88,87.6751
73.5,2.568,0,372.55,371.7,20,40, ,371.7,87.6663
73.6667,2.568,0,373.39,372.55,20,40, ,372.55,87.6663
73.8333,2.567742,0,374.22,373.38,20,40, ,373.38,87.6575
74,2.567742,0,375.05,374.21,20,40, ,374.21,87.6575
74.1667,2.567484,0,375.89,375.05,20,40, ,375.05,87.6487
74.3333,2.567226,0,376.72,375.88,20,40, ,375.88,87.6399
74.5,2.567226,0,377.55,376.72,20,40, ,376.72,87.6399
74.6667,2.566968,0,378.39,377.55,20,40, ,377.55,87.6311
74.8333,2.56671,0,379.22,378.4,20,40, ,378.4,87.6223
75,2.56671,0,380.05,379.23,20,40, ,379.23,87.6223
75.1667,2.566452,0,380.89,380.06,20,40, ,380.06,87.6134
75.3333,2.566194,0,381.72,380.89,20,40, ,380.89,87.6046
75.5,2.566194,0,382.55,381.73,20,40, ,381.73,87.6046
75.6667,2.565935,0,383.39,382.56,20,40, ,382.56,87.5958
75.8333,2.565677,0,384.22,383.41,20,40, ,383.41,87.587
76,2.565419,0,385.05,384.24,20,40, ,384.24,87.5782
76.1667,2.565161,0,385.89,385.07,20,40, ,385.07,87.5694
76.3333,2.565161,0,386.72,385.9,20,40, ,385.9,87.5694
76.5,2.564903,0,387.55,386.75,20,40, ,386.75,87.5606
76.6667,2.564645,0,388.39,387.58,20,40, ,387.58,87.5518
76.8333,2.564387,0,389.22,388.41,20,40, ,388.41,87.543
77,2.564129,0,390.05,389.25,20,40, ,389.25,87.5341
77.1667,2.563871,0,390.89,390.09,20,40, ,390.09,87.5253
77.3333,2.563613,0,391.72,390.92,20,40, ,390.92,87.5165
77.5,2.563355,0,392.55,391.75,20,40, ,391.75,87.5077
77.6667,2.563097,0,393.39,392.58,20,40, ,392.58,87.4989
77.8333,2.562839,0,394.22,393.43,20,40, ,393.43,87.4901
78,2.562323,0,395.05,394.26,20,40, ,394.26,87.4725
78.1667,2.562065,0,395.89,395.09,20,40, ,395.09,87.4637
78.3333,2.561806,0,396.72,395.92,20,40, ,395.92,87.4548
78.5,2.561548,0,397.55,396.76,20,40, ,396.76,87.446
78.6667,2.561032,0,398.39,397.6,20,40, ,397.6,87.4284
78.8333,2.560774,0,399.22,398.43,20,40, ,398.43,87.4196
79,2.560258,0,400.05,399.27,20,40, ,399.27,87.402
79.1667,2.56,0,400.89,400.1,20,40, ,400.1,87.3932
79.3333,2.559484,0,401.72,400.94,20,40, ,400.94,87.3756
79.5,2.559226,0,402.55,401.78,20,40, ,401.78,87.3668
79.6667,2.55871,0,403.39,402.62,20,40, ,402.62,87.3492
79.8333,2.558452,0,404.22,403.45,20,40, ,403.45,87.3403
80,2.558194,0,405.05,404.28,20,40, ,404.28,87.3315
80.1667,2.557677,0,405.89,405.12,20,40, ,405.12,87.3139
80.3333,2.557161,0,406.72,405.95,20,40, ,405.95,87.2963
80.5,2.556645,0,407.55,406.79,20,40, ,406.79,87.2787
80.6667,2.556129,0,408.39,407.62,20,40, ,407.62,87.261
80.8333,2.555613,0,409.22,408.45,20,40, ,408.45,87.2434
81,2.555097,0,410.05,409.29,20,40, ,409.29,87.2258
81.1667,2.554581,0,410.89,410.12,20,40, ,410.12,87.2082
81.3333,2.554065,0,411.72,410.96,20,40, ,410.96,87.1906
81.5,2.55329,0,412.55,411.8,20,40, ,411.8,87.1641
81.6667,2.552774,0,413.39,412.63,20,40, ,412.63,87.1465
81.8333,2.552,0,414.22,413.46,20,40, ,413.46,87.1201
82,2.551226,0,415.05,414.3,20,40, ,414.3,87.0937
82.1667,2.55071,0,415.89,415.14,20,40, ,415.14,87.076
82.3333,2.549935,0,416.72,415.97,20,40, ,415.97,87.0496
82.5,2.549161,0,417.55,416.81,20,40, ,416.81,87.0232
82.6667,2.548387,0,418.39,417.65,20,40, ,417.65,86.9967
82.8333,2.547355,0,419.22,418.49,20,40, ,418.49,86.9615
83,2.546581,0,420.05,419.31,20,40, ,419.31,86.9351
83.1667,2.546065,0,420.89,420.15,20,40, ,420.15,86.9175
83.3333,2.54529,0,421.72,420.98,20,40, ,420.98,86.891
83.5,2.544258,0,422.55,421.82,20,40, ,421.82,86.8558
83.6667,2.543226,0,423.39,422.65,20,40, ,422.65,86.8206
83.8333,2.542194,0,424.22,423.49,20,40, ,423.49,86.7853
84,2.541161,0,425.05,424.32,20,40, ,424.32,86.7501
84.1667,2.540129,0,425.89,425.17,20,40, ,425.17,86.7148
84.3333,2.539097,0,426.72,425.99,20,40, ,425.99,86.6796
84.5,2.538065,0,427.55,426.83,20,40, ,426.83,86.6444
84.6667,2.536774,0,428.39,427.66,20,40, ,427.66,86.6003
84.8333,2.535484,0,429.22,428.51,20,40, ,428.51,86.5563
85,2.534452,0,430.05,429.33,20,40, ,429.33,86.521
85.1667,2.533161,0,430.89,430.18,20,40, ,430.18,86.477
85.3333,2.531613,0,431.72,431.01,20,40, ,431.01,86.4241
85.5,2.530323,0,432.55,431.85,20,40, ,431.85,86.3801
85.6667,2.528774,0,433.39,432.67,20,40, ,432.67,86.3272
85.8333,2.527226,0,434.22,433.51,20,40, ,433.51,86.2744
86,2.525677,0,435.05,434.35,20,40, ,434.35,86.2215
86.1667,2.524129,0,435.89,435.18,20,40, ,435.18,86.1686
86.3333,2.522323,0,436.72,436.01,20,40, ,436.01,86.107
86.5,2.520774,0,437.55,436.86,20,40, ,436.86,86.0541
86.6667,2.518968,0,438.39,437.68,20,40, ,437.68,85.9924
86.8333,2.516903,0,439.22,438.53,20,40, ,438.53,85.9219
87,2.515097,0,440.05,439.36,20,40, ,439.36,85.8603
87.1667,2.513032,0,440.89,440.19,20,40, ,440.19,85.7898
87.3333,2.510968,0,441.72,441.03,20,40, ,441.03,85.7193
87.5,2.508903,0,442.55,441.87,20,40, ,441.87,85.6488
87.6667,2.506581,0,443.39,442.7,20,40, ,442.7,85.5696
87.8333,2.504258,0,444.22,443.53,20,40, ,443.53,85.4903
88,2.501935,0,445.05,444.37,20,40, ,444.37,85.411
88.1667,2.499613,0,445.89,445.21,20,40, ,445.21,85.3317
88.3333,2.497032,0,446.72,446.04,20,40, ,446.04,85.2436
88.5,2.494452,0,447.55,446.88,20,40, ,446.88,85.1555
88.6667,2.491613,0,448.39,447.71,20,40, ,447.71,85.0586
88.8333,2.488774,0,449.22,448.54,20,40, ,448.54,84.9617
89,2.485935,0,450.05,449.38,20,40, ,449.38,84.8648
89.1667,2.482839,0,450.89,450.22,20,40, ,450.22,84.7591
89.3333,2.479742,0,451.72,451.06,20,40, ,451.06,84.6533
89.5,2.476645,0,452.55,451.88,20,40, ,451.88,84.5476
89.6667,2.47329,0,453.39,452.72,20,40, ,452.72,84.4331
89.8333,2.469935,0,454.22,453.55,20,40, ,453.55,84.3186
90,2.466323,0,455.05,454.4,20,40, ,454.4,84.1952
90.1667,2.462968,0,455.89,455.23,20,40, ,455.23,84.0807
90.3333,2.459355,0,456.72,456.06,20,40, ,456.06,83.9574
90.5,2.455484,0,457.55,456.9,20,40, ,456.9,83.8252
90.6667,2.451613,0,458.39,457.73,20,40, ,457.73,83.6931
90.8333,2.447742,0,459.22,458.57,20,40, ,458.57,83.5609
91,2.443613,0,460.05,459.4,20,40, ,459.4,83.42
91.1667,2.439742,0,460.89,460.24,20,40, ,460.24,83.2878
91.3333,2.435355,0,461.72,461.08,20,40, ,461.08,83.1381
91.5,2.431226,0,462.55,461.91,20,40, ,461.91,82.9971
91.6667,2.426839,0,463.39,462.75,20,40, ,462.75,82.8473
91.8333,2.422452,0,464.22,463.58,20,40, ,463.58,82.6976
92,2.417806,0,465.05,464.42,20,40, ,464.42,82.539
92.1667,2.413419,0,465.89,465.26,20,40, ,465.26,82.3892
92.3333,2.408774,0,466.72,466.08,20,40, ,466.08,82.2306
92.5,2.404129,0,467.55,466.92,20,40, ,466.92,82.0721
92.6667,2.399484,0,468.39,467.75,20,40, ,467.75,81.9135
92.8333,2.394581,0,469.22,468.59,20,40, ,468.59,81.7461
93,2.389935,0,470.05,469.43,20,40, ,469.43,81.5875
93.1667,2.384774,0,470.89,470.26,20,40, ,470.26,81.4113
93.3333,2.379871,0,471.72,471.1,20,40, ,471.1,81.244
93.5,2.37471,0,472.55,471.93,20,40, ,471.93,81.0678
93.6667,2.369806,0,473.39,472.77,20,40, ,472.77,80.9004
93.8333,2.364903,0,474.22,473.61,20,40, ,473.61,80.733
94,2.359484,0,475.05,474.44,20,40, ,474.44,80.548
94.1667,2.354323,0,475.89,475.27,20,40, ,475.27,80.3718
94.3333,2.349161,0,476.72,476.11,20,40, ,476.11,80.1956
94.5,2.343742,0,477.55,476.95,20,40, ,476.95,80.0106
94.6667,2.338323,0,478.39,477.78,20,40, ,477.78,79.8256
94.8333,2.332903,0,479.22,478.62,20,40, ,478.62,79.6406
95,2.327484,0,480.05,479.45,20,40, ,479.45,79.4556
95.1667,2.321806,0,480.89,480.28,20,40, ,480.28,79.2617
95.3333,2.316387,0,481.72,481.12,20,40, ,481.12,79.0767
95.5,2.310452,0,482.55,481.95,20,40, ,481.95,78.8741
95.6667,2.304774,0,483.39,482.79,20,40, ,482.79,78.6803
95.8333,2.298839,0,484.22,483.63,20,40, ,483.63,78.4777
96,2.292903,0,485.05,484.45,20,40, ,484.45,78.275
96.1667,2.286968,0,485.89,485.3,20,40, ,485.3,78.0724
96.3333,2.280774,0,486.72,486.13,20,40, ,486.13,77.861
96.5,2.274581,0,487.55,486.97,20,40, ,486.97,77.6496
96.6667,2.268387,0,488.39,487.8,20,40, ,487.8,77.4381
96.8333,2.261935,0,489.22,488.63,20,40, ,488.63,77.2179
97,2.255226,0,490.05,489.47,20,40, ,489.47,76.9888
97.1667,2.248516,0,490.89,490.3,20,40, ,490.3,76.7598
97.3333,2.241548,0,491.72,491.14,20,40, ,491.14,76.5219
97.5,2.234839,0,492.55,491.97,20,40, ,491.97,76.2929
97.6667,2.227871,0,493.39,492.8,20,40, ,492.8,76.055
97.8333,2.220903,0,494.22,493.65,20,40, ,493.65,75.8171
98,2.213677,0,495.05,494.48,20,40, ,494.48,75.5704
98.1667,2.206194,0,495.89,495.31,20,40, ,495.31,75.315
98.3333,2.198452,0,496.72,496.15,20,40, ,496.15,75.0507
98.5,2.19071,0,497.55,497,20,40, ,497,74.7864
98.6667,2.18271,0,498.39,497.81,20,40, ,497.81,74.5133
98.8333,2.17471,0,499.22,498.66,20,40, ,498.66,74.2402
99,2.166452,0,500.05,499.49,20,40, ,499.49,73.9583
99.1667,2.157935,0,500.89,500.33,20,40, ,500.33,73.6675
99.3333,2.149161,0,501.72,501.16,20,40, ,501.16,73.368
99.5,2.140645,0,502.55,502,20,40, ,502,73.0773
99.6667,2.131613,0,503.39,502.84,20,40, ,502.84,72.7689
99.8333,2.122581,0,504.22,503.66,20,40, ,503.66,72.4606
100,2.113032,0,505.05,504.51,20,40, ,504.51,72.1346
100.167,2.103226,0,505.89,505.34,20,40, ,505.34,71.7999
100.333,2.093419,0,506.72,506.17,20,40, ,506.17,71.4651
100.5,2.083613,0,507.55,507.01,20,40, ,507.01,71.1303
100.667,2.073548,0,508.39,507.85,20,40, ,507.85,70.7867
100.833,2.06271,0,509.22,508.68,20,40, ,508.68,70.4167
101,2.051613,0,510.05,509.52,20,40, ,509.52,70.0379
101.167,2.040516,0,510.89,510.35,20,40, ,510.35,69.6591
101.333,2.029161,0,511.72,511.19,20,40, ,511.19,69.2714
101.5,2.017806,0,512.55,512.02,20,40, ,512.02,68.8838
101.667,2.006452,0,513.39,512.86,20,40, ,512.86,68.4962
101.833,1.993806,0,514.22,513.69,20,40, ,513.69,68.0645
102,1.980903,0,515.05,514.53,20,40, ,514.53,67.624
102.167,1.967742,0,515.89,515.36,20,40, ,515.36,67.1747
102.333,1.954581,0,516.72,516.19,20,40, ,516.19,66.7254
102.5,1.940645,0,517.55,517.03,20,40, ,517.03,66.2497
102.667,1.92671,0,518.39,517.87,20,40, ,517.87,65.774
102.833,1.912774,0,519.22,518.7,20,40, ,518.7,65.2982
103,1.898581,0,520.05,519.54,20,40, ,519.54,64.8137
103.167,1.883613,0,520.89,520.37,20,40, ,520.37,64.3027
103.333,1.868129,0,521.72,521.21,20,40, ,521.21,63.7741
103.5,1.852645,0,522.55,522.05,20,40, ,522.05,63.2455
103.667,1.836645,0,523.39,522.87,20,40, ,522.87,62.6993
103.833,1.820387,0,524.22,523.71,20,40, ,523.71,62.1443
104,1.803613,0,525.05,524.55,20,40, ,524.55,61.5717
104.167,1.786581,0,525.89,525.38,20,40, ,525.38,60.9902
104.333,1.769032,0,526.72,526.22,20,40, ,526.22,60.3912
104.5,1.751484,0,527.55,527.05,20,40, ,527.05,59.7921
104.667,1.733677,0,528.39,527.89,20,40, ,527.89,59.1842
104.833,1.713806,0,529.22,528.72,20,40, ,528.72,58.5058
105,1.695484,0,530.05,529.56,20,40, ,529.56,57.8804
105.167,1.676387,0,530.89,530.39,20,40, ,530.39,57.2284
105.333,1.656258,0,531.72,531.23,20,40, ,531.23,56.5413
105.5,1.636387,0,532.55,532.06,20,40, ,532.06,55.8629
105.667,1.616,0,533.39,532.9,20,40, ,532.9,55.167
105.833,1.595355,0,534.22,533.74,20,40, ,533.74,54.4622
106,1.574452,0,535.05,534.57,20,40, ,534.57,53.7486
106.167,1.553032,0,535.89,535.41,20,40, ,535.41,53.0174
106.333,1.531871,0,536.72,536.23,20,40, ,536.23,52.295
106.5,1.51071,0,537.55,537.07,20,40, ,537.07,51.5726
106.667,1.488258,0,538.39,537.91,20,40, ,537.91,50.8061
106.833,1.465548,0,539.22,538.75,20,40, ,538.75,50.0308
107,1.443355,0,540.05,539.59,20,40, ,539.59,49.2732
107.167,1.420645,0,540.89,540.42,20,40, ,540.42,48.4979
107.333,1.398194,0,541.72,541.26,20,40, ,541.26,47.7315
107.5,1.375226,0,542.55,542.09,20,40, ,542.09,46.9474
107.667,1.352258,0,543.39,542.92,20,40, ,542.92,46.1633
107.833,1.329032,0,544.22,543.76,20,40, ,543.76,45.3704
108,1.306065,0,545.05,544.59,20,40, ,544.59,44.5864
108.167,1.283097,0,545.89,545.42,20,40, ,545.42,43.8023
108.333,1.259355,0,546.72,546.26,20,40, ,546.26,42.9918
108.5,1.236129,0,547.55,547.09,20,40, ,547.09,42.1989
108.667,1.212903,0,548.39,547.94,20,40, ,547.94,41.406
108.833,1.190194,0,549.22,548.77,20,40, ,548.77,40.6308
109,1.167226,0,550.05,549.6,20,40, ,549.6,39.8467
109.167,1.144,0,550.89,550.43,20,40, ,550.43,39.0538
109.333,1.121548,0,551.72,551.27,20,40, ,551.27,38.2874
109.5,1.099097,0,552.55,552.11,20,40, ,552.11,37.5209
109.667,1.076903,0,553.39,552.94,20,40, ,552.94,36.7633
109.833,1.05471,0,554.22,553.77,20,40, ,553.77,36.0057
110,1.033032,0,555.05,554.61,20,40, ,554.61,35.2656
110.167,1.011355,0,555.89,555.45,20,40, ,555.45,34.5256
110.333,0.989935,0,556.72,556.28,20,40, ,556.28,33.7944
110.5,0.968774,0,557.55,557.11,20,40, ,557.11,33.072
110.667,0.948645,0,558.39,557.96,20,40, ,557.96,32.3848
110.833,0.928258,0,559.22,558.8,20,40, ,558.8,31.6888
111,0.907613,0,560.05,559.62,20,40, ,559.62,30.9841
111.167,0.887742,0,560.89,560.46,20,40, ,560.46,30.3057
111.333,0.868645,0,561.72,561.29,20,40, ,561.29,29.6538
111.5,0.849806,0,562.55,562.13,20,40, ,562.13,29.0106
111.667,0.831484,0,563.39,562.96,20,40, ,562.96,28.3852
111.833,0.813419,0,564.22,563.79,20,40, ,563.79,27.7685
112,0.795871,0,565.05,564.63,20,40, ,564.63,27.1694
112.167,0.778839,0,565.89,565.47,20,40, ,565.47,26.588
112.333,0.762065,0,566.72,566.3,20,40, ,566.3,26.0153
112.5,0.745806,0,567.55,567.14,20,40, ,567.14,25.4603
112.667,0.730065,0,568.39,567.97,20,40, ,567.97,24.9229
112.833,0.714581,0,569.22,568.81,20,40, ,568.81,24.3943
113,0.699871,0,570.05,569.65,20,40, ,569.65,23.8922
113.167,0.685161,0,570.89,570.48,20,40, ,570.48,23.39
113.333,0.67071,0,571.72,571.32,20,40, ,571.32,22.8967
113.5,0.656774,0,572.55,572.15,20,40, ,572.15,22.4209
113.667,0.643097,0,573.39,572.99,20,40, ,572.99,21.954
113.833,0.630194,0,574.22,573.83,20,40, ,573.83,21.5135
114,0.617806,0,575.05,574.66,20,40, ,574.66,21.0906
114.167,0.606194,0,575.89,575.49,20,40, ,575.49,20.6942
114.333,0.594323,0,576.72,576.33,20,40, ,576.33,20.289
114.5,0.582968,0,577.55,577.16,20,40, ,577.16,19.9013
114.667,0.572129,0,578.39,578,20,40, ,578,19.5313
114.833,0.561806,0,579.22,578.84,20,40, ,578.84,19.1789
115,0.552,0,580.05,579.67,20,40, ,579.67,18.8442
115.167,0.542194,0,580.89,580.5,20,40, ,580.5,18.5094
115.333,0.532903,0,581.72,581.34,20,40, ,581.34,18.1922
115.5,0.524129,0,582.55,582.17,20,40, ,582.17,17.8927
115.667,0.515613,0,583.39,583.02,20,40, ,583.02,17.602
115.833,0.507613,0,584.22,583.85,20,40, ,583.85,17.3289
116,0.499871,0,585.05,584.68,20,40, ,584.68,17.0646
116.167,0.492645,0,585.89,585.52,20,40, ,585.52,16.8179
116.333,0.485677,0,586.72,586.34,20,40, ,586.34,16.58
116.5,0.478968,0,587.55,587.19,20,40, ,587.19,16.351
116.667,0.472516,0,588.39,588.02,20,40, ,588.02,16.1307
116.833,0.466581,0,589.22,588.85,20,40, ,588.85,15.9281
117,0.460645,0,590.05,589.68,20,40, ,589.68,15.7255
117.167,0.454968,0,590.89,590.53,20,40, ,590.53,15.5317
117.333,0.449806,0,591.72,591.36,20,40, ,591.36,15.3555
117.5,0.444903,0,592.55,592.19,20,40, ,592.19,15.1881
117.667,0.440258,0,593.39,593.04,20,40, ,593.04,15.0295
117.833,0.435871,0,594.22,593.87,20,40, ,593.87,14.8797
118,0.431484,0,595.05,594.7,20,40, ,594.7,14.73
118.167,0.427355,0,595.89,595.53,20,40, ,595.53,14.589
118.333,0.423484,0,596.72,596.37,20,40, ,596.37,14.4569
118.5,0.419613,0,597.55,597.2,20,40, ,597.2,14.3247
118.667,0.416258,0,598.39,598.03,20,40, ,598.03,14.2102
118.833,0.412903,0,599.22,598.89,20,40, ,598.89,14.0957
119,0.409806,0,600.05,599.72,20,40, ,599.72,13.9899
119.167,0.407226,0,600.89,600.54,20,40, ,600.54,13.9019
119.333,0.404387,0,601.72,601.38,20,40, ,601.38,13.8049
119.5,0.401806,0,602.55,602.21,20,40, ,602.21,13.7168
119.667,0.399484,0,603.39,603.05,20,40, ,603.05,13.6376
119.833,0.397161,0,604.22,603.89,20,40, ,603.89,13.5583
120,0.394839,0,605.05,604.72,20,40, ,604.72,13.479
120.167,0.392774,0,605.89,605.56,20,40, ,605.56,13.4085
120.333,0.390968,0,606.72,606.39,20,40, ,606.39,13.3469
120.5,0.389161,0,607.55,607.22,20,40, ,607.22,13.2852
120.667,0.387355,0,608.39,608.06,20,40, ,608.06,13.2235
120.833,0.385548,0,609.22,608.88,20,40, ,608.88,13.1618
121,0.384,0,610.05,609.74,20,40, ,609.74,13.109
121.167,0.382452,0,610.89,610.58,20,40, ,610.58,13.0561
121.333,0.381161,0,611.72,611.41,20,40, ,611.41,13.0121
121.5,0.379871,0,612.55,612.23,20,40, ,612.23,12.968
121.667,0.378581,0,613.39,613.07,20,40, ,613.07,12.924
121.833,0.377548,0,614.22,613.92,20,40, ,613.92,12.8887
122,0.376258,0,615.05,614.74,20,40, ,614.74,12.8447
122.167,0.375226,0,615.89,615.58,20,40, ,615.58,12.8095
122.333,0.374452,0,616.72,616.41,20,40, ,616.41,12.783
122.5,0.373419,0,617.55,617.25,20,40, ,617.25,12.7478
122.667,0.372645,0,618.39,618.08,20,40, ,618.08,12.7213
122.833,0.371871,0,619.22,618.92,20,40, ,618.92,12.6949
123,0.371097,0,620.05,619.75,20,40, ,619.75,12.6685
123.167,0.370323,0,620.89,620.59,20,40, ,620.59,12.6421
123.333,0.369806,0,621.72,621.41,20,40, ,621.41,12.6244
123.5,0.36929,0,622.55,622.26,20,40, ,622.26,12.6068
123.667,0.369032,0,623.39,623.08,20,40, ,623.08,12.598
123.833,0.368,0,624.22,623.94,20,40, ,623.94,12.5628
124,0.367484,0,625.05,624.76,20,40, ,624.76,12.5452
124.167,0.367484,0,625.89,625.6,20,40, ,625.6,12.5452
124.333,0.367226,0,626.72,626.41,20,40, ,626.41,12.5363
124.5,0.367226,0,627.55,627.25,20,40, ,627.25,12.5363
124.667,0.366452,0,628.39,628.13,20,40, ,628.13,12.5099
124.833,0.366194,0,629.22,628.89,20,40, ,628.89,12.5011
125,0.365935,0,630.05,591.84,20,40, ,591.84,12.4923
125.167,0.365677,0,630.89,618.71,20,40, ,618.71,12.4835
125.333,0.365419,0,631.72,636.26,20,40, ,636.26,12.4747
125.5,0.364903,0,632.55,644.33,20,40, ,644.33,12.457
125.667,0.364645,0,633.39,642.57,20,40, ,642.57,12.4482
125.833,0.364387,0,634.22,636.9,20,40, ,636.9,12.4394
126,0.364129,0,635.05,632.45,19.9,40, ,632.45,12.4306
126.167,0.364129,0,635.89,646.99,20,40, ,646.99,12.4306
126.333,0.364129,0,636.72,644.42,20,40, ,644.42,12.4306
126.5,0.363871,0,637.55,548.34,20,40, ,548.34,12.4218
126.667,0.363613,0,638.39,647.05,20,40, ,647.05,12.413
126.833,0.363613,0,639.22,648.34,20,40, ,648.34,12.413
127,0.363355,0,640.05,640.28,20,40, ,640.28,12.4042
127.167,0.363355,0,640.89,648.43,20,40, ,648.43,12.4042
127.333,0.363355,0,641.72,651.19,20,40, ,651.19,12.4042
127.5,0.363355,0,642.55,643.75,20,40, ,643.75,12.4042
127.667,0.363355,0,643.39,650.37,20,40, ,650.37,12.4042
127.833,0.363097,0,644.22,653.56,20,40, ,653.56,12.3954
128,0.363097,0,645.05,645.31,20,40, ,645.31,12.3954
128.167,0.363097,0,645.89,654.05,20,40, ,654.05,12.3954
128.333,0.363097,0,646.72,655.63,20,40, ,655.63,12.3954
128.5,0.363097,0,647.55,571.2,20,40, ,571.2,12.3954
128.667,0.363097,0,648.39,657.44,20,40, ,657.44,12.3954
128.833,0.363097,0,649.22,658.15,20,40, ,658.15,12.3954
129,0.363097,0,650.05,555.46,20,40, ,555.46,12.3954
129.167,0.362839,0,650.89,660.25,20,40, ,660.25,12.3866
129.333,0.362581,0,651.72,660.79,20,40, ,660.79,12.3778
129.5,0.362839,0,652.55,596.67,20,40, ,596.67,12.3866
129.667,0.363097,0,653.39,662.22,20,40, ,662.22,12.3954
129.833,0.363097,0,654.22,663.89,20,40, ,663.89,12.3954
130,0.362839,0,655.05,655.84,20,40, ,655.84,12.3866
130.167,0.362581,0,655.89,663.33,20,40, ,663.33,12.3778
130.333,0.362581,0,656.72,667.06,20,40, ,667.06,12.3778
130.5,0.362581,0,657.55,659.92,20,40, ,659.92,12.3778
130.667,0.362839,0,658.39,660.79,20,40, ,660.79,12.3866
130.833,0.362839,0,659.22,670.92,20,40, ,670.92,12.3866
131,0.363097,0,660.05,665.26,20,40, ,665.26,12.3954
131.167,0.362839,0,660.89,657.93,20,40, ,657.93,12.3866
131.333,0.362581,0,661.72,673.66,20,40, ,673.66,12.3778
131.5,0.362581,0,662.55,670.83,20,40, ,670.83,12.3778
131.667,0.362581,0,663.39,564.92,20,40, ,564.92,12.3778
131.833,0.362581,0,664.22,673.38,20,40, ,673.38,12.3778
132,0.362581,0,665.05,676.71,20,40, ,676.71,12.3778
132.167,0.362581,0,665.89,669.96,20,40, ,669.96,12.3778
132.333,0.362581,0,666.72,664.13,20,40, ,664.13,12.3778
132.5,0.362581,0,667.55,679.88,20,40, ,679.88,12.3778
132.667,0.362581,0,668.39,677.51,20,40, ,677.51,12.3778
132.833,0.362839,0,669.22,670.32,20,40, ,670.32,12.3866
133,0.362839,0,670.05,672.37,20,40, ,672.37,12.3866
133.167,0.362839,0,670.89,683.85,20,40, ,683.85,12.3866
133.333,0.362581,0,671.72,679.75,20,40, ,679.75,12.3778
133.5,0.362581,0,672.55,544.92,20,40, ,544.92,12.3778
133.667,0.362839,0,673.39,678.15,20,40, ,678.15,12.3866
133.833,0.362839,0,674.22,687.72,20,40, ,687.72,12.3866
134,0.362839,0,675.05,683.49,20,40, ,683.49,12.3866
134.167,0.363097,0,675.89,601.53,20,40, ,601.53,12.3954
134.333,0.362839,0,676.72,678.51,20,40, ,678.51,12.3866
134.5,0.362581,0,677.55,691.71,20,40, ,691.71,12.3778
134.667,0.362581,0,678.39,689.12,20,40, ,689.12,12.3778
134.833,0.362581,0,679.22,682.81,20,40, ,682.81,12.3778
135,0.362839,0,680.05,676.09,20,40, ,676.09,12.3866
135.167,0.362839,0,680.89,692.5,20,40, ,692.5,12.3866
135.333,0.363097,0,681.72,696.17,20,40, ,696.17,12.3954
135.5,0.362839,0,682.55,692.19,20,40, ,692.19,12.3866
135.667,0.362581,0,683.39,686.06,20,40, ,686.06,12.3778
135.833,0.362839,0,684.22,680.05,20,40, ,680.05,12.3866
136,0.362839,0,685.05,694.51,20,40, ,694.51,12.3866
136.167,0.362839,0,685.89,701.03,20,40, ,701.03,12.3866
136.333,0.362839,0,686.72,698.76,20,40, ,698.76,12.3866
136.5,0.362839,0,687.55,693.16,20,40, ,693.16,12.3866
136.667,0.362839,0,688.39,544.39,20,40, ,544.39,12.3866
136.833,0.362839,0,689.22,688.71,19.9,40, ,688.71,12.3866
137,0.363613,0,690.05,705.2,20,40, ,705.2,12.413
137.167,0.363871,0,690.89,706.7,20,40, ,706.7,12.4218
137.333,0.363871,0,691.72,703.87,20,40, ,703.87,12.4218
137.5,0.363355,0,692.55,699.16,20,40, ,699.16,12.4042
137.667,0.363355,0,693.39,693.94,20,40, ,693.94,12.4042
137.833,0.363355,0,694.22,689.88,20,40, ,689.88,12.4042
138,0.363355,0,695.05,702.51,20,40, ,702.51,12.4042
138.167,0.363355,0,695.89,712.14,20,40, ,712.14,12.4042
138.333,0.363355,0,696.72,714.05,20,40, ,714.05,12.4042
138.5,0.363355,0,697.55,712.11,20,40, ,712.11,12.4042
138.667,0.363355,0,698.39,708.89,20,40, ,708.89,12.4042
138.833,0.363355,0,699.22,705.51,20,40, ,705.51,12.4042
139,0.363355,0,700,535.3,20,40, ,535.3,12.4042
139.167,0.363097,0,700,685.92,20,40, ,685.92,12.3954
139.333,0.363097,0,700,688.77,20,40, ,688.77,12.3954
139.5,0.363355,0,700,692.28,20,40, ,692.28,12.4042
139.667,0.363613,0,700,695.69,20,40, ,695.69,12.413
139.833,0.363613,0,700,699.15,20,40, ,699.15,12.413
140,0.363871,0,700,697.16,20,40, ,697.16,12.4218
140.167,0.363871,0,700,698.61,20,40, ,698.61,12.4218
140.333,0.363871,0,700,698.23,20,40, ,698.23,12.4218
140.5,0.363871,0,700,696.22,20,40, ,696.22,12.4218
140.667,0.364129,0,700,695.79,20,40, ,695.79,12.4306
140.833,0.364129,0,700,699.13,20,40, ,699.13,12.4306
141,0.364129,0,700,693.9,20,40, ,693.9,12.4306
141.167,0.364129,0,700,696.1,20,40, ,696.1,12.4306
141.333,0.364129,0,700,699.16,20,40, ,699.16,12.4306
141.5,0.364129,0,700,697.4,20,40, ,697.4,12.4306
141.667,0.364129,0,700,699.8,20,40, ,699.8,12.4306
141.833,0.364129,0,700,689.07,20,40, ,689.07,12.4306
142,0.364387,0,700,663.71,20,40, ,663.71,12.4394
142.167,0.364387,0,700,699.63,20,40, ,699.63,12.4394
142.333,0.364387,0,700,694.4,20,40, ,694.4,12.4394
142.5,0.364645,0,700,696.89,20,40, ,696.89,12.4482
142.667,0.364645,0,700,696.46,20,40, ,696.46,12.4482
142.833,0.364645,0,700,696.1,20,40, ,696.1,12.4482
143,0.364645,0,700,697.65,20,40, ,697.65,12.4482
143.167,0.364387,0,700,689.92,20,40, ,689.92,12.4394
143.333,0.364645,0,700,695.32,20,40, ,695.32,12.4482
143.5,0.364903,0,700,693.4,20,40, ,693.4,12.457
143.667,0.364645,0,700,694.92,20,40, ,694.92,12.4482
143.833,0.364903,0,700,697.69,20,40, ,697.69,12.457
143.933,0.365161,0,700,648.8,20,40, ,648.8,12.4659