File: src/from/parser/__tests__/data/dsc/PerkinElmerCSV.txt
Time,Unsubtracted Heat Flow,Baseline Heat Flow,Program Temperature,Sample Temperature,Approx. Gas Flow,Heat Flow Calibration,Uncorrected Heat Flow,
0.000000,-16.1054,0.000000,-15,-15.05,0.000000,0.896910,-16.1054,
0.018550,-15.8202,0.000000,-15,-15.05,0.000000,0.896910,-15.8202,
0.037099,-15.588,0.000000,-15,-15.05,0.000000,0.896910,-15.588,
0.055649,-15.3997,0.000000,-15,-15.05,0.000000,0.896910,-15.3997,
0.074199,-15.2474,0.000000,-15,-15.055,0.000000,0.896910,-15.2474,
0.092749,-15.1235,0.000000,-15,-15.05,0.000000,0.896910,-15.1235,
0.111298,-15.0234,0.000000,-15,-15.05,0.000000,0.896910,-15.0234,
0.129848,-14.9423,0.000000,-15,-15.05,0.000000,0.896910,-14.9423,
0.148398,-14.8768,0.000000,-15,-15.05,0.000000,0.896910,-14.8768,
0.166948,-14.8242,0.000000,-15,-15.05,0.000000,0.896910,-14.8242,
0.185497,-14.7819,0.000000,-15,-15.05,0.000000,0.896910,-14.7819,
0.204047,-14.7476,0.000000,-15,-15.055,0.000000,0.896910,-14.7476,
0.222597,-14.7199,0.000000,-15,-15.055,0.000000,0.896910,-14.7199,
0.241147,-14.6979,0.000000,-15,-15.05,0.000000,0.896910,-14.6979,
0.259696,-14.6802,0.000000,-15,-15.055,0.000000,0.896910,-14.6802,
0.278246,-14.6658,0.000000,-15,-15.055,0.000000,0.896910,-14.6658,
0.296796,-14.6543,0.000000,-15,-15.055,0.000000,0.896910,-14.6543,
0.315346,-14.6451,0.000000,-15,-15.055,0.000000,0.896910,-14.6451,
0.333895,-14.6376,0.000000,-15,-15.05,0.000000,0.896910,-14.6376,
0.352445,-14.6315,0.000000,-15,-15.055,0.000000,0.896910,-14.6315,
0.370995,-14.6264,0.000000,-15,-15.055,0.000000,0.896910,-14.6264,
0.389545,-14.6222,0.000000,-15,-15.055,0.000000,0.896910,-14.6222,
0.408094,-14.6187,0.000000,-15,-15.05,0.000000,0.896910,-14.6187,
0.426644,-14.6161,0.000000,-15,-15.05,0.000000,0.896910,-14.6161,
0.445194,-14.614,0.000000,-15,-15.05,0.000000,0.896910,-14.614,
0.463744,-14.6117,0.000000,-15,-15.05,0.000000,0.896910,-14.6117,
0.482293,-14.61,0.000000,-15,-15.05,0.000000,0.896910,-14.61,
0.500843,-14.6086,0.000000,-15,-15.05,0.000000,0.896910,-14.6086,
0.519393,-14.6077,0.000000,-15,-15.055,0.000000,0.896910,-14.6077,
0.537943,-14.6068,0.000000,-15,-15.055,0.000000,0.896910,-14.6068,
0.556492,-14.6065,0.000000,-15,-15.059,0.000000,0.896910,-14.6065,
0.575042,-14.6059,0.000000,-15,-15.055,0.000000,0.896910,-14.6059,
0.593592,-14.6055,0.000000,-15,-15.055,0.000000,0.896910,-14.6055,
0.612142,-14.6047,0.000000,-15,-15.05,0.000000,0.896910,-14.6047,
0.630691,-14.6043,0.000000,-15,-15.05,0.000000,0.896910,-14.6043,
0.649241,-14.6033,0.000000,-15,-15.05,0.000000,0.896910,-14.6033,
0.667791,-14.6026,0.000000,-15,-15.055,0.000000,0.896910,-14.6026,
0.686341,-14.6018,0.000000,-15,-15.055,0.000000,0.896910,-14.6018,
0.704890,-14.6013,0.000000,-15,-15.055,0.000000,0.896910,-14.6013,
0.723440,-14.6011,0.000000,-15,-15.05,0.000000,0.896910,-14.6011,
0.741990,-14.6006,0.000000,-15,-15.05,0.000000,0.896910,-14.6006,
0.760540,-14.6,0.000000,-15,-15.05,0.000000,0.896910,-14.6,
0.779089,-14.5994,0.000000,-15,-15.055,0.000000,0.896910,-14.5994,
0.797639,-14.5989,0.000000,-15,-15.055,0.000000,0.896910,-14.5989,
0.816189,-14.5985,0.000000,-15,-15.05,0.000000,0.896910,-14.5985,
0.834739,-14.5982,0.000000,-15,-15.055,0.000000,0.896910,-14.5982,
0.853288,-14.5978,0.000000,-15,-15.05,0.000000,0.896910,-14.5978,
0.871838,-14.5974,0.000000,-15,-15.05,0.000000,0.896910,-14.5974,
0.890388,-14.5967,0.000000,-15,-15.059,0.000000,0.896910,-14.5967,
0.908938,-14.5961,0.000000,-15,-15.055,0.000000,0.896910,-14.5961,
0.927487,-14.5956,0.000000,-15,-15.055,0.000000,0.896910,-14.5956,
0.946037,-14.5955,0.000000,-15,-15.055,0.000000,0.896910,-14.5955,
0.964587,-14.5953,0.000000,-15,-15.055,0.000000,0.896910,-14.5953,
0.983137,-14.5949,0.000000,-15,-15.055,0.000000,0.896910,-14.5949,
1.001686,-14.5943,0.000000,-15,-15.05,0.000000,0.896910,-14.5943,
1.019304,-14.6281,0.000000,-14.917,-15.05,0.000000,0.896910,-14.6281,
1.035804,-14.7165,0.000000,-14.75,-15.025,0.000000,0.896910,-14.7165,
1.052304,-14.7298,0.000000,-14.588,-14.938,0.000000,0.896910,-14.7298,
1.068804,-14.8553,0.000000,-14.421,-14.796,0.000000,0.896910,-14.8553,
1.085304,-15.2276,0.000000,-14.259,-14.634,0.000000,0.896910,-15.2276,
1.101804,-15.712,0.000000,-14.092,-14.463,0.000000,0.896910,-15.712,
1.118304,-16.0735,0.000000,-13.93,-14.296,0.000000,0.896910,-16.0735,
1.134804,-16.1692,0.000000,-13.763,-14.134,0.000000,0.896910,-16.1692,
1.151304,-15.9967,0.000000,-13.596,-13.971,0.000000,0.896910,-15.9967,
1.167804,-15.6446,0.000000,-13.434,-13.805,0.000000,0.896910,-15.6446,
1.184304,-15.2197,0.000000,-13.267,-13.642,0.000000,0.896910,-15.2197,
1.200804,-14.8008,0.000000,-13.105,-13.48,0.000000,0.896910,-14.8008,
1.217304,-14.4291,0.000000,-12.938,-13.317,0.000000,0.896910,-14.4291,
1.233804,-14.1162,0.000000,-12.775,-13.146,0.000000,0.896910,-14.1162,
1.250304,-13.8569,0.000000,-12.609,-12.988,0.000000,0.896910,-13.8569,
1.266804,-13.6416,0.000000,-12.446,-12.825,0.000000,0.896910,-13.6416,
1.283304,-13.4617,0.000000,-12.28,-12.659,0.000000,0.896910,-13.4617,
1.299804,-13.31,0.000000,-12.117,-12.492,0.000000,0.896910,-13.31,
1.316304,-13.182,0.000000,-11.95,-12.325,0.000000,0.896910,-13.182,
1.332804,-13.0743,0.000000,-11.788,-12.163,0.000000,0.896910,-13.0743,
1.349304,-12.9837,0.000000,-11.621,-12,0.000000,0.896910,-12.9837,
1.365804,-12.9075,0.000000,-11.459,-11.834,0.000000,0.896910,-12.9075,
1.382304,-12.8436,0.000000,-11.292,-11.667,0.000000,0.896910,-12.8436,
1.398804,-12.79,0.000000,-11.125,-11.505,0.000000,0.896910,-12.79,
1.415304,-12.7447,0.000000,-10.963,-11.338,0.000000,0.896910,-12.7447,
1.431804,-12.7067,0.000000,-10.796,-11.171,0.000000,0.896910,-12.7067,
1.448304,-12.6741,0.000000,-10.634,-11.009,0.000000,0.896910,-12.6741,
1.464804,-12.6461,0.000000,-10.467,-10.846,0.000000,0.896910,-12.6461,
1.481304,-12.6226,0.000000,-10.305,-10.68,0.000000,0.896910,-12.6226,
1.497804,-12.6031,0.000000,-10.138,-10.513,0.000000,0.896910,-12.6031,
1.514304,-12.5862,0.000000,-9.975000,-10.346,0.000000,0.896910,-12.5862,
1.530804,-12.5719,0.000000,-9.809000,-10.184,0.000000,0.896910,-12.5719,
1.547304,-12.5592,0.000000,-9.646000,-10.017,0.000000,0.896910,-12.5592,
1.563804,-12.5477,0.000000,-9.480000,-9.855000,0.000000,0.896910,-12.5477,
1.580304,-12.5376,0.000000,-9.317000,-9.684000,0.000000,0.896910,-12.5376,
1.596804,-12.5291,0.000000,-9.150000,-9.521000,0.000000,0.896910,-12.5291,
1.613304,-12.5209,0.000000,-8.988000,-9.350000,0.000000,0.896910,-12.5209,
1.629804,-12.5132,0.000000,-8.821000,-9.196000,0.000000,0.896910,-12.5132,
1.646304,-12.5062,0.000000,-8.655000,-9.030000,0.000000,0.896910,-12.5062,
1.662804,-12.4993,0.000000,-8.492000,-8.859000,0.000000,0.896910,-12.4993,
1.679304,-12.4925,0.000000,-8.325000,-8.700000,0.000000,0.896910,-12.4925,
1.695804,-12.4859,0.000000,-8.163000,-8.534000,0.000000,0.896910,-12.4859,
1.712304,-12.4801,0.000000,-7.996000,-8.367000,0.000000,0.896910,-12.4801,
1.728804,-12.4749,0.000000,-7.834000,-8.205000,0.000000,0.896910,-12.4749,
1.745304,-12.4697,0.000000,-7.667000,-8.038000,0.000000,0.896910,-12.4697,
1.761804,-12.464,0.000000,-7.505000,-7.871000,0.000000,0.896910,-12.464,
1.778304,-12.4579,0.000000,-7.338000,-7.709000,0.000000,0.896910,-12.4579,
1.794804,-12.4527,0.000000,-7.175000,-7.542000,0.000000,0.896910,-12.4527,
1.811304,-12.4475,0.000000,-7.009000,-7.380000,0.000000,0.896910,-12.4475,
1.827804,-12.4423,0.000000,-6.846000,-7.217000,0.000000,0.896910,-12.4423,
1.844304,-12.4374,0.000000,-6.680000,-7.055000,0.000000,0.896910,-12.4374,
1.860804,-12.4323,0.000000,-6.513000,-6.884000,0.000000,0.896910,-12.4323,
1.877304,-12.4263,0.000000,-6.350000,-6.721000,0.000000,0.896910,-12.4263,
1.893804,-12.4203,0.000000,-6.184000,-6.559000,0.000000,0.896910,-12.4203,
1.910304,-12.4145,0.000000,-6.021000,-6.392000,0.000000,0.896910,-12.4145,
1.926804,-12.4087,0.000000,-5.855000,-6.225000,0.000000,0.896910,-12.4087,
1.943304,-12.4034,0.000000,-5.692000,-6.059000,0.000000,0.896910,-12.4034,
1.959804,-12.3986,0.000000,-5.525000,-5.896000,0.000000,0.896910,-12.3986,
1.976304,-12.394,0.000000,-5.363000,-5.730000,0.000000,0.896910,-12.394,
1.992804,-12.3898,0.000000,-5.196000,-5.563000,0.000000,0.896910,-12.3898,
2.009304,-12.3857,0.000000,-5.034000,-5.400000,0.000000,0.896910,-12.3857,
2.025804,-12.3811,0.000000,-4.867000,-5.234000,0.000000,0.896910,-12.3811,
2.042304,-12.3758,0.000000,-4.705000,-5.067000,0.000000,0.896910,-12.3758,
2.058804,-12.3699,0.000000,-4.538000,-4.909000,0.000000,0.896910,-12.3699,
2.075304,-12.3636,0.000000,-4.375000,-4.738000,0.000000,0.896910,-12.3636,
2.091804,-12.3572,0.000000,-4.209000,-4.575000,0.000000,0.896910,-12.3572,
2.108304,-12.3516,0.000000,-4.042000,-4.409000,0.000000,0.896910,-12.3516,
2.124804,-12.3463,0.000000,-3.880000,-4.242000,0.000000,0.896910,-12.3463,
2.141304,-12.3411,0.000000,-3.713000,-4.080000,0.000000,0.896910,-12.3411,
2.157804,-12.3359,0.000000,-3.550000,-3.913000,0.000000,0.896910,-12.3359,
2.174304,-12.3307,0.000000,-3.384000,-3.746000,0.000000,0.896910,-12.3307,
2.190804,-12.3248,0.000000,-3.221000,-3.580000,0.000000,0.896910,-12.3248,
2.207304,-12.3193,0.000000,-3.055000,-3.413000,0.000000,0.896910,-12.3193,
2.223804,-12.3137,0.000000,-2.892000,-3.250000,0.000000,0.896910,-12.3137,
2.240304,-12.308,0.000000,-2.725000,-3.084000,0.000000,0.896910,-12.308,
2.256804,-12.302,0.000000,-2.563000,-2.921000,0.000000,0.896910,-12.302,
2.273304,-12.296,0.000000,-2.396000,-2.755000,0.000000,0.896910,-12.296,
2.289804,-12.2896,0.000000,-2.234000,-2.588000,0.000000,0.896910,-12.2896,
2.306304,-12.2831,0.000000,-2.067000,-2.430000,0.000000,0.896910,-12.2831,
2.322804,-12.2772,0.000000,-1.905000,-2.259000,0.000000,0.896910,-12.2772,
2.339304,-12.2716,0.000000,-1.738000,-2.092000,0.000000,0.896910,-12.2716,
2.355804,-12.2658,0.000000,-1.571000,-1.925000,0.000000,0.896910,-12.2658,
2.372304,-12.2592,0.000000,-1.409000,-1.759000,0.000000,0.896910,-12.2592,
2.388804,-12.253,0.000000,-1.242000,-1.596000,0.000000,0.896910,-12.253,
2.405304,-12.2468,0.000000,-1.080000,-1.434000,0.000000,0.896910,-12.2468,
2.421804,-12.2411,0.000000,-0.913000,-1.267000,0.000000,0.896910,-12.2411,
2.438304,-12.2355,0.000000,-0.750000,-1.100000,0.000000,0.896910,-12.2355,
2.454804,-12.2298,0.000000,-0.584000,-0.938000,0.000000,0.896910,-12.2298,
2.471304,-12.224,0.000000,-0.421000,-0.775000,0.000000,0.896910,-12.224,
2.487804,-12.2177,0.000000,-0.255000,-0.609000,0.000000,0.896910,-12.2177,
2.504304,-12.2112,0.000000,-0.092000,-0.442000,0.000000,0.896910,-12.2112,
2.520804,-12.2044,0.000000,0.075000,-0.275000,0.000000,0.896910,-12.2044,
2.537304,-12.1981,0.000000,0.237000,-0.113000,0.000000,0.896910,-12.1981,
2.553804,-12.1921,0.000000,0.404000,0.050000,0.000000,0.896910,-12.1921,
2.570304,-12.1867,0.000000,0.570000,0.216000,0.000000,0.896910,-12.1867,
2.586804,-12.1827,0.000000,0.733000,0.387000,0.000000,0.896910,-12.1827,
2.603304,-12.1811,0.000000,0.900000,0.550000,0.000000,0.896910,-12.1811,
2.619804,-12.1768,0.000000,1.062000,0.716000,0.000000,0.896910,-12.1768,
2.636304,-12.1697,0.000000,1.229000,0.879000,0.000000,0.896910,-12.1697,
2.652804,-12.1592,0.000000,1.391000,1.041000,0.000000,0.896910,-12.1592,
2.669304,-12.1504,0.000000,1.558000,1.208000,0.000000,0.896910,-12.1504,
2.685804,-12.1436,0.000000,1.720000,1.370000,0.000000,0.896910,-12.1436,
2.702304,-12.1379,0.000000,1.887000,1.537000,0.000000,0.896910,-12.1379,
2.718804,-12.1338,0.000000,2.050000,1.704000,0.000000,0.896910,-12.1338,
2.735304,-12.1326,0.000000,2.216000,1.870000,0.000000,0.896910,-12.1326,
2.751804,-12.1291,0.000000,2.379000,2.033000,0.000000,0.896910,-12.1291,
2.768304,-12.1219,0.000000,2.545000,2.200000,0.000000,0.896910,-12.1219,
2.784804,-12.1129,0.000000,2.708000,2.366000,0.000000,0.896910,-12.1129,
2.801304,-12.104,0.000000,2.875000,2.525000,0.000000,0.896910,-12.104,
2.817804,-12.0981,0.000000,3.041000,2.695000,0.000000,0.896910,-12.0981,
2.834304,-12.0911,0.000000,3.204000,2.866000,0.000000,0.896910,-12.0911,
2.850804,-12.0854,0.000000,3.370000,3.025000,0.000000,0.896910,-12.0854,
2.867304,-12.0836,0.000000,3.533000,3.191000,0.000000,0.896910,-12.0836,
2.883804,-12.0808,0.000000,3.700000,3.354000,0.000000,0.896910,-12.0808,
2.900304,-12.0752,0.000000,3.862000,3.520000,0.000000,0.896910,-12.0752,
2.916804,-12.068,0.000000,4.029000,3.683000,0.000000,0.896910,-12.068,
2.933304,-12.0607,0.000000,4.191000,3.850000,0.000000,0.896910,-12.0607,
2.949804,-12.0539,0.000000,4.358000,4.012000,0.000000,0.896910,-12.0539,
2.966304,-12.0468,0.000000,4.520000,4.183000,0.000000,0.896910,-12.0468,
2.982804,-12.04,0.000000,4.687000,4.350000,0.000000,0.896910,-12.04,
2.999304,-12.0339,0.000000,4.850000,4.516000,0.000000,0.896910,-12.0339,
3.015804,-12.0304,0.000000,5.016000,4.675000,0.000000,0.896910,-12.0304,
3.032304,-12.0268,0.000000,5.179000,4.845000,0.000000,0.896910,-12.0268,
3.048804,-12.0222,0.000000,5.345000,5.008000,0.000000,0.896910,-12.0222,
3.065304,-12.0159,0.000000,5.512000,5.170000,0.000000,0.896910,-12.0159,
3.081804,-12.0097,0.000000,5.675000,5.341000,0.000000,0.896910,-12.0097,
3.098304,-12.0032,0.000000,5.841000,5.504000,0.000000,0.896910,-12.0032,
3.114804,-11.9963,0.000000,6.004000,5.666000,0.000000,0.896910,-11.9963,
3.131304,-11.9896,0.000000,6.170000,5.833000,0.000000,0.896910,-11.9896,
3.147804,-11.9838,0.000000,6.333000,6.000000,0.000000,0.896910,-11.9838,
3.164304,-11.9794,0.000000,6.500000,6.166000,0.000000,0.896910,-11.9794,
3.180804,-11.9747,0.000000,6.662000,6.329000,0.000000,0.896910,-11.9747,
3.197304,-11.9694,0.000000,6.829000,6.495000,0.000000,0.896910,-11.9694,
3.213804,-11.9633,0.000000,6.991000,6.666000,0.000000,0.896910,-11.9633,
3.230304,-11.9571,0.000000,7.158000,6.825000,0.000000,0.896910,-11.9571,
3.246804,-11.9499,0.000000,7.320000,6.991000,0.000000,0.896910,-11.9499,
3.263304,-11.9427,0.000000,7.487000,7.158000,0.000000,0.896910,-11.9427,
3.279804,-11.9349,0.000000,7.654000,7.325000,0.000000,0.896910,-11.9349,
3.296304,-11.9286,0.000000,7.816000,7.487000,0.000000,0.896910,-11.9286,
3.312804,-11.9241,0.000000,7.983000,7.650000,0.000000,0.896910,-11.9241,
3.329304,-11.919,0.000000,8.145000,7.820000,0.000000,0.896910,-11.919,
3.345804,-11.9131,0.000000,8.312000,7.983000,0.000000,0.896910,-11.9131,
3.362304,-11.9066,0.000000,8.475000,8.150000,0.000000,0.896910,-11.9066,
3.378804,-11.8995,0.000000,8.641000,8.312000,0.000000,0.896910,-11.8995,
3.395304,-11.8929,0.000000,8.804000,8.483000,0.000000,0.896910,-11.8929,
3.411804,-11.886,0.000000,8.970000,8.645000,0.000000,0.896910,-11.886,
3.428304,-11.8791,0.000000,9.133000,8.808000,0.000000,0.896910,-11.8791,
3.444804,-11.8738,0.000000,9.300000,8.975000,0.000000,0.896910,-11.8738,
3.461304,-11.8699,0.000000,9.462000,9.141000,0.000000,0.896910,-11.8699,
3.477804,-11.8647,0.000000,9.629000,9.308000,0.000000,0.896910,-11.8647,
3.494304,-11.858,0.000000,9.791000,9.475000,0.000000,0.896910,-11.858,
3.510804,-11.8506,0.000000,9.958000,9.637000,0.000000,0.896910,-11.8506,
3.527304,-11.8433,0.000000,10.125,9.804000,0.000000,0.896910,-11.8433,
3.543804,-11.8363,0.000000,10.287,9.966000,0.000000,0.896910,-11.8363,
3.560304,-11.8296,0.000000,10.454,10.133,0.000000,0.896910,-11.8296,
3.576804,-11.8234,0.000000,10.616,10.295,0.000000,0.896910,-11.8234,
3.593304,-11.8189,0.000000,10.783,10.462,0.000000,0.896910,-11.8189,
3.609804,-11.8146,0.000000,10.945,10.629,0.000000,0.896910,-11.8146,
3.626304,-11.8094,0.000000,11.112,10.795,0.000000,0.896910,-11.8094,
3.642804,-11.8032,0.000000,11.275,10.958,0.000000,0.896910,-11.8032,
3.659304,-11.7956,0.000000,11.441,11.125,0.000000,0.896910,-11.7956,
3.675804,-11.7882,0.000000,11.604,11.291,0.000000,0.896910,-11.7882,
3.692304,-11.781,0.000000,11.77,11.458,0.000000,0.896910,-11.781,
3.708804,-11.7741,0.000000,11.933,11.616,0.000000,0.896910,-11.7741,
3.725304,-11.768,0.000000,12.1,11.787,0.000000,0.896910,-11.768,
3.741804,-11.7635,0.000000,12.266,11.95,0.000000,0.896910,-11.7635,
3.758304,-11.7591,0.000000,12.429,12.112,0.000000,0.896910,-11.7591,
3.774804,-11.7534,0.000000,12.595,12.279,0.000000,0.896910,-11.7534,
3.791304,-11.7459,0.000000,12.758,12.445,0.000000,0.896910,-11.7459,
3.807804,-11.738,0.000000,12.925,12.612,0.000000,0.896910,-11.738,
3.824304,-11.7307,0.000000,13.087,12.779,0.000000,0.896910,-11.7307,
3.840804,-11.7241,0.000000,13.254,12.945,0.000000,0.896910,-11.7241,
3.857304,-11.7175,0.000000,13.416,13.112,0.000000,0.896910,-11.7175,
3.873804,-11.7113,0.000000,13.583,13.275,0.000000,0.896910,-11.7113,
3.890304,-11.7061,0.000000,13.745,13.441,0.000000,0.896910,-11.7061,
3.906804,-11.7002,0.000000,13.912,13.604,0.000000,0.896910,-11.7002,
3.923304,-11.6932,0.000000,14.075,13.77,0.000000,0.896910,-11.6932,
3.939804,-11.6846,0.000000,14.241,13.933,0.000000,0.896910,-11.6846,
3.956304,-11.675,0.000000,14.404,14.1,0.000000,0.896910,-11.675,
3.972804,-11.6658,0.000000,14.57,14.262,0.000000,0.896910,-11.6658,
3.989304,-11.6583,0.000000,14.737,14.429,0.000000,0.896910,-11.6583,
4.005804,-11.6516,0.000000,14.9,14.591,0.000000,0.896910,-11.6516,
4.022304,-11.646,0.000000,15.066,14.758,0.000000,0.896910,-11.646,
4.038804,-11.6415,0.000000,15.229,14.925,0.000000,0.896910,-11.6415,
4.055304,-11.6373,0.000000,15.395,15.091,0.000000,0.896910,-11.6373,
4.071804,-11.632,0.000000,15.558,15.254,0.000000,0.896910,-11.632,
4.088304,-11.6256,0.000000,15.725,15.412,0.000000,0.896910,-11.6256,
4.104804,-11.6194,0.000000,15.887,15.583,0.000000,0.896910,-11.6194,
4.121304,-11.6137,0.000000,16.054,15.745,0.000000,0.896910,-11.6137,
4.137804,-11.6086,0.000000,16.216,15.912,0.000000,0.896910,-11.6086,
4.154304,-11.6032,0.000000,16.383,16.075,0.000000,0.896910,-11.6032,
4.170804,-11.5968,0.000000,16.545,16.237,0.000000,0.896910,-11.5968,
4.187304,-11.5911,0.000000,16.712,16.404,0.000000,0.896910,-11.5911,
4.203804,-11.5854,0.000000,16.875,16.57,0.000000,0.896910,-11.5854,
4.220304,-11.5788,0.000000,17.041,16.733,0.000000,0.896910,-11.5788,
4.236804,-11.5713,0.000000,17.208,16.895,0.000000,0.896910,-11.5713,
4.253304,-11.5638,0.000000,17.37,17.062,0.000000,0.896910,-11.5638,
4.269804,-11.5558,0.000000,17.537,17.229,0.000000,0.896910,-11.5558,
4.286304,-11.5483,0.000000,17.7,17.391,0.000000,0.896910,-11.5483,
4.302804,-11.5414,0.000000,17.866,17.558,0.000000,0.896910,-11.5414,
4.319304,-11.5346,0.000000,18.029,17.725,0.000000,0.896910,-11.5346,
4.335804,-11.5286,0.000000,18.195,17.887,0.000000,0.896910,-11.5286,
4.352304,-11.5218,0.000000,18.358,18.054,0.000000,0.896910,-11.5218,
4.368804,-11.5139,0.000000,18.525,18.216,0.000000,0.896910,-11.5139,
4.385304,-11.506,0.000000,18.687,18.379,0.000000,0.896910,-11.506,
4.401804,-11.4986,0.000000,18.854,18.545,0.000000,0.896910,-11.4986,
4.418304,-11.4909,0.000000,19.016,18.708,0.000000,0.896910,-11.4909,
4.434804,-11.4836,0.000000,19.183,18.875,0.000000,0.896910,-11.4836,
4.451304,-11.4761,0.000000,19.35,19.037,0.000000,0.896910,-11.4761,
4.467804,-11.4691,0.000000,19.512,19.2,0.000000,0.896910,-11.4691,
4.484304,-11.462,0.000000,19.679,19.362,0.000000,0.896910,-11.462,
4.500804,-11.4551,0.000000,19.841,19.529,0.000000,0.896910,-11.4551,
4.517304,-11.4474,0.000000,20.008,19.695,0.000000,0.896910,-11.4474,
4.533804,-11.4405,0.000000,20.17,19.862,0.000000,0.896910,-11.4405,
4.550304,-11.4336,0.000000,20.337,20.02,0.000000,0.896910,-11.4336,
4.566804,-11.4262,0.000000,20.5,20.191,0.000000,0.896910,-11.4262,
4.583304,-11.418,0.000000,20.666,20.35,0.000000,0.896910,-11.418,
4.599804,-11.4101,0.000000,20.829,20.516,0.000000,0.896910,-11.4101,
4.616304,-11.4024,0.000000,20.995,20.687,0.000000,0.896910,-11.4024,
4.632804,-11.3954,0.000000,21.158,20.845,0.000000,0.896910,-11.3954,
4.649304,-11.3883,0.000000,21.325,21.012,0.000000,0.896910,-11.3883,
4.665804,-11.3813,0.000000,21.487,21.175,0.000000,0.896910,-11.3813,
4.682304,-11.3743,0.000000,21.654,21.337,0.000000,0.896910,-11.3743,
4.698804,-11.3669,0.000000,21.82,21.504,0.000000,0.896910,-11.3669,
4.715304,-11.3588,0.000000,21.983,21.675,0.000000,0.896910,-11.3588,
4.731804,-11.351,0.000000,22.15,21.837,0.000000,0.896910,-11.351,
4.748304,-11.3438,0.000000,22.312,22.004,0.000000,0.896910,-11.3438,
4.764804,-11.3371,0.000000,22.479,22.166,0.000000,0.896910,-11.3371,
4.781304,-11.3304,0.000000,22.641,22.337,0.000000,0.896910,-11.3304,
4.797804,-11.323,0.000000,22.808,22.495,0.000000,0.896910,-11.323,
4.814304,-11.315,0.000000,22.97,22.662,0.000000,0.896910,-11.315,
4.830804,-11.3069,0.000000,23.137,22.825,0.000000,0.896910,-11.3069,
4.847304,-11.2991,0.000000,23.3,22.987,0.000000,0.896910,-11.2991,
4.863804,-11.2914,0.000000,23.466,23.154,0.000000,0.896910,-11.2914,
4.880304,-11.2841,0.000000,23.629,23.32,0.000000,0.896910,-11.2841,
4.896804,-11.2765,0.000000,23.795,23.487,0.000000,0.896910,-11.2765,
4.913304,-11.2694,0.000000,23.958,23.654,0.000000,0.896910,-11.2694,
4.929804,-11.2619,0.000000,24.125,23.816,0.000000,0.896910,-11.2619,
4.946304,-11.254,0.000000,24.291,23.979,0.000000,0.896910,-11.254,
4.962804,-11.2456,0.000000,24.454,24.137,0.000000,0.896910,-11.2456,
4.979304,-11.2376,0.000000,24.62,24.312,0.000000,0.896910,-11.2376,
4.995804,-11.2297,0.000000,24.783,24.475,0.000000,0.896910,-11.2297,
5.012304,-11.2221,0.000000,24.95,24.641,0.000000,0.896910,-11.2221,
5.028804,-11.2142,0.000000,25.112,24.8,0.000000,0.896910,-11.2142,
5.045304,-11.2064,0.000000,25.279,24.962,0.000000,0.896910,-11.2064,
5.061804,-11.1991,0.000000,25.441,25.129,0.000000,0.896910,-11.1991,
5.078304,-11.1912,0.000000,25.608,25.295,0.000000,0.896910,-11.1912,
5.094804,-11.1824,0.000000,25.77,25.458,0.000000,0.896910,-11.1824,
5.111304,-11.1734,0.000000,25.937,25.625,0.000000,0.896910,-11.1734,
5.127804,-11.1646,0.000000,26.1,25.787,0.000000,0.896910,-11.1646,
5.144304,-11.156,0.000000,26.266,25.958,0.000000,0.896910,-11.156,
5.160804,-11.148,0.000000,26.433,26.112,0.000000,0.896910,-11.148,
5.177304,-11.1401,0.000000,26.595,26.283,0.000000,0.896910,-11.1401,
5.193804,-11.1328,0.000000,26.762,26.445,0.000000,0.896910,-11.1328,
5.210304,-11.1254,0.000000,26.925,26.612,0.000000,0.896910,-11.1254,
5.226804,-11.1177,0.000000,27.091,26.779,0.000000,0.896910,-11.1177,
5.243304,-11.1097,0.000000,27.254,26.941,0.000000,0.896910,-11.1097,
5.259804,-11.1009,0.000000,27.42,27.104,0.000000,0.896910,-11.1009,
5.276304,-11.0921,0.000000,27.583,27.275,0.000000,0.896910,-11.0921,
5.292804,-11.0834,0.000000,27.75,27.437,0.000000,0.896910,-11.0834,
5.309304,-11.0751,0.000000,27.912,27.595,0.000000,0.896910,-11.0751,
5.325804,-11.0668,0.000000,28.079,27.766,0.000000,0.896910,-11.0668,
5.342304,-11.0586,0.000000,28.241,27.925,0.000000,0.896910,-11.0586,
5.358804,-11.0506,0.000000,28.408,28.095,0.000000,0.896910,-11.0506,
5.375304,-11.0426,0.000000,28.57,28.258,0.000000,0.896910,-11.0426,
5.391804,-11.0347,0.000000,28.737,28.425,0.000000,0.896910,-11.0347,
5.408304,-11.0265,0.000000,28.904,28.591,0.000000,0.896910,-11.0265,
5.424804,-11.0178,0.000000,29.066,28.75,0.000000,0.896910,-11.0178,
5.441304,-11.0091,0.000000,29.233,28.916,0.000000,0.896910,-11.0091,
5.457804,-11.0002,0.000000,29.395,29.083,0.000000,0.896910,-11.0002,
5.474304,-10.9915,0.000000,29.562,29.25,0.000000,0.896910,-10.9915,
5.490804,-10.9826,0.000000,29.725,29.416,0.000000,0.896910,-10.9826,
5.507304,-10.9731,0.000000,29.891,29.575,0.000000,0.896910,-10.9731,
5.523804,-10.9639,0.000000,30.054,29.741,0.000000,0.896910,-10.9639,
5.540304,-10.9558,0.000000,30.22,29.908,0.000000,0.896910,-10.9558,
5.556804,-10.9479,0.000000,30.383,30.07,0.000000,0.896910,-10.9479,
5.573304,-10.9407,0.000000,30.55,30.233,0.000000,0.896910,-10.9407,
5.589804,-10.934,0.000000,30.712,30.4,0.000000,0.896910,-10.934,
5.606304,-10.927,0.000000,30.879,30.566,0.000000,0.896910,-10.927,
5.622804,-10.9201,0.000000,31.045,30.729,0.000000,0.896910,-10.9201,
5.639304,-10.9125,0.000000,31.208,30.895,0.000000,0.896910,-10.9125,
5.655804,-10.9056,0.000000,31.375,31.058,0.000000,0.896910,-10.9056,
5.672304,-10.8976,0.000000,31.537,31.225,0.000000,0.896910,-10.8976,
5.688804,-10.8897,0.000000,31.704,31.391,0.000000,0.896910,-10.8897,
5.705304,-10.8814,0.000000,31.866,31.554,0.000000,0.896910,-10.8814,
5.721804,-10.873,0.000000,32.033,31.716,0.000000,0.896910,-10.873,
5.738304,-10.8644,0.000000,32.195,31.883,0.000000,0.896910,-10.8644,
5.754804,-10.8557,0.000000,32.362,32.045,0.000000,0.896910,-10.8557,
5.771304,-10.8468,0.000000,32.525,32.212,0.000000,0.896910,-10.8468,
5.787804,-10.8381,0.000000,32.691,32.379,0.000000,0.896910,-10.8381,
5.804304,-10.8302,0.000000,32.854,32.541,0.000000,0.896910,-10.8302,
5.820804,-10.8219,0.000000,33.02,32.708,0.000000,0.896910,-10.8219,
5.837304,-10.8136,0.000000,33.183,32.87,0.000000,0.896910,-10.8136,
5.853804,-10.8049,0.000000,33.35,33.037,0.000000,0.896910,-10.8049,
5.870304,-10.7963,0.000000,33.516,33.2,0.000000,0.896910,-10.7963,
5.886804,-10.7876,0.000000,33.679,33.362,0.000000,0.896910,-10.7876,
5.903304,-10.7791,0.000000,33.845,33.529,0.000000,0.896910,-10.7791,
5.919804,-10.771,0.000000,34.008,33.695,0.000000,0.896910,-10.771,
5.936304,-10.7633,0.000000,34.175,33.858,0.000000,0.896910,-10.7633,
5.952804,-10.756,0.000000,34.337,34.025,0.000000,0.896910,-10.756,
5.969304,-10.7485,0.000000,34.504,34.187,0.000000,0.896910,-10.7485,
5.985804,-10.7399,0.000000,34.666,34.35,0.000000,0.896910,-10.7399,
6.002304,-10.7314,0.000000,34.833,34.52,0.000000,0.896910,-10.7314,
6.018804,-10.7234,0.000000,34.995,34.683,0.000000,0.896910,-10.7234,
6.035304,-10.7156,0.000000,35.162,34.85,0.000000,0.896910,-10.7156,
6.051804,-10.7079,0.000000,35.325,35.008,0.000000,0.896910,-10.7079,
6.068304,-10.7009,0.000000,35.491,35.17,0.000000,0.896910,-10.7009,
6.084804,-10.6937,0.000000,35.654,35.341,0.000000,0.896910,-10.6937,
6.101304,-10.6869,0.000000,35.82,35.508,0.000000,0.896910,-10.6869,
6.117804,-10.6792,0.000000,35.987,35.67,0.000000,0.896910,-10.6792,
6.134304,-10.6707,0.000000,36.15,35.833,0.000000,0.896910,-10.6707,
6.150804,-10.6627,0.000000,36.316,36.004,0.000000,0.896910,-10.6627,
6.167304,-10.6553,0.000000,36.479,36.166,0.000000,0.896910,-10.6553,
6.183804,-10.6482,0.000000,36.645,36.329,0.000000,0.896910,-10.6482,
6.200304,-10.641,0.000000,36.808,36.495,0.000000,0.896910,-10.641,
6.216804,-10.6343,0.000000,36.975,36.654,0.000000,0.896910,-10.6343,
6.233304,-10.6274,0.000000,37.137,36.816,0.000000,0.896910,-10.6274,
6.249804,-10.6204,0.000000,37.304,36.987,0.000000,0.896910,-10.6204,
6.266304,-10.6133,0.000000,37.466,37.15,0.000000,0.896910,-10.6133,
6.282804,-10.6057,0.000000,37.633,37.316,0.000000,0.896910,-10.6057,
6.299304,-10.5979,0.000000,37.795,37.483,0.000000,0.896910,-10.5979,
6.315804,-10.5893,0.000000,37.962,37.65,0.000000,0.896910,-10.5893,
6.332304,-10.5809,0.000000,38.129,37.812,0.000000,0.896910,-10.5809,
6.348804,-10.5726,0.000000,38.291,37.979,0.000000,0.896910,-10.5726,
6.365304,-10.5646,0.000000,38.458,38.141,0.000000,0.896910,-10.5646,
6.381804,-10.5562,0.000000,38.62,38.308,0.000000,0.896910,-10.5562,
6.398304,-10.5468,0.000000,38.787,38.47,0.000000,0.896910,-10.5468,
6.414804,-10.537,0.000000,38.95,38.637,0.000000,0.896910,-10.537,
6.431304,-10.5278,0.000000,39.116,38.804,0.000000,0.896910,-10.5278,
6.447804,-10.5175,0.000000,39.279,38.966,0.000000,0.896910,-10.5175,
6.464304,-10.5068,0.000000,39.445,39.129,0.000000,0.896910,-10.5068,
6.480804,-10.4956,0.000000,39.608,39.3,0.000000,0.896910,-10.4956,
6.497304,-10.4844,0.000000,39.775,39.462,0.000000,0.896910,-10.4844,
6.513804,-10.4733,0.000000,39.937,39.62,0.000000,0.896910,-10.4733,
6.530304,-10.4634,0.000000,40.104,39.787,0.000000,0.896910,-10.4634,
6.546804,-10.4528,0.000000,40.266,39.954,0.000000,0.896910,-10.4528,
6.563304,-10.4421,0.000000,40.433,40.12,0.000000,0.896910,-10.4421,
6.579804,-10.431,0.000000,40.6,40.287,0.000000,0.896910,-10.431,
6.596304,-10.4199,0.000000,40.762,40.45,0.000000,0.896910,-10.4199,
6.612804,-10.4093,0.000000,40.929,40.612,0.000000,0.896910,-10.4093,
6.629304,-10.3988,0.000000,41.091,40.779,0.000000,0.896910,-10.3988,
6.645804,-10.3884,0.000000,41.258,40.941,0.000000,0.896910,-10.3884,
6.662304,-10.3782,0.000000,41.42,41.108,0.000000,0.896910,-10.3782,
6.678804,-10.3681,0.000000,41.587,41.27,0.000000,0.896910,-10.3681,
6.695304,-10.3575,0.000000,41.75,41.441,0.000000,0.896910,-10.3575,
6.711804,-10.3459,0.000000,41.916,41.6,0.000000,0.896910,-10.3459,
6.728304,-10.3345,0.000000,42.079,41.77,0.000000,0.896910,-10.3345,
6.744804,-10.3236,0.000000,42.245,41.933,0.000000,0.896910,-10.3236,
6.761304,-10.3133,0.000000,42.408,42.095,0.000000,0.896910,-10.3133,
6.777804,-10.3026,0.000000,42.575,42.262,0.000000,0.896910,-10.3026,
6.794304,-10.2916,0.000000,42.737,42.425,0.000000,0.896910,-10.2916,
6.810804,-10.2809,0.000000,42.904,42.591,0.000000,0.896910,-10.2809,
6.827304,-10.2707,0.000000,43.07,42.758,0.000000,0.896910,-10.2707,
6.843804,-10.2615,0.000000,43.233,42.92,0.000000,0.896910,-10.2615,
6.860304,-10.2522,0.000000,43.4,43.083,0.000000,0.896910,-10.2522,
6.876804,-10.243,0.000000,43.562,43.25,0.000000,0.896910,-10.243,
6.893304,-10.2329,0.000000,43.729,43.412,0.000000,0.896910,-10.2329,
6.909804,-10.2225,0.000000,43.891,43.575,0.000000,0.896910,-10.2225,
6.926304,-10.2124,0.000000,44.058,43.737,0.000000,0.896910,-10.2124,
6.942804,-10.2021,0.000000,44.22,43.912,0.000000,0.896910,-10.2021,
6.959304,-10.1925,0.000000,44.387,44.075,0.000000,0.896910,-10.1925,
6.975804,-10.1822,0.000000,44.55,44.237,0.000000,0.896910,-10.1822,
6.992304,-10.1724,0.000000,44.716,44.404,0.000000,0.896910,-10.1724,
7.008804,-10.1624,0.000000,44.879,44.566,0.000000,0.896910,-10.1624,
7.025304,-10.1514,0.000000,45.045,44.733,0.000000,0.896910,-10.1514,
7.041804,-10.1402,0.000000,45.212,44.895,0.000000,0.896910,-10.1402,
7.058304,-10.1289,0.000000,45.375,45.062,0.000000,0.896910,-10.1289,
7.074804,-10.1189,0.000000,45.541,45.229,0.000000,0.896910,-10.1189,
7.091304,-10.1092,0.000000,45.704,45.391,0.000000,0.896910,-10.1092,
7.107804,-10.0996,0.000000,45.87,45.558,0.000000,0.896910,-10.0996,
7.124304,-10.0892,0.000000,46.033,45.72,0.000000,0.896910,-10.0892,
7.140804,-10.0786,0.000000,46.2,45.887,0.000000,0.896910,-10.0786,
7.157304,-10.0679,0.000000,46.362,46.05,0.000000,0.896910,-10.0679,
7.173804,-10.057,0.000000,46.529,46.208,0.000000,0.896910,-10.057,
7.190304,-10.0465,0.000000,46.691,46.379,0.000000,0.896910,-10.0465,
7.206804,-10.0364,0.000000,46.858,46.545,0.000000,0.896910,-10.0364,
7.223304,-10.0271,0.000000,47.02,46.708,0.000000,0.896910,-10.0271,
7.239804,-10.0179,0.000000,47.187,46.875,0.000000,0.896910,-10.0179,
7.256304,-10.0099,0.000000,47.35,47.037,0.000000,0.896910,-10.0099,
7.272804,-10.0023,0.000000,47.516,47.204,0.000000,0.896910,-10.0023,
7.289304,-9.993466,0.000000,47.683,47.37,0.000000,0.896910,-9.993466,
7.305804,-9.983241,0.000000,47.845,47.537,0.000000,0.896910,-9.983241,
7.322304,-9.972030,0.000000,48.012,47.7,0.000000,0.896910,-9.972030,
7.338804,-9.960819,0.000000,48.175,47.866,0.000000,0.896910,-9.960819,
7.355304,-9.950145,0.000000,48.341,48.029,0.000000,0.896910,-9.950145,
7.371804,-9.938306,0.000000,48.504,48.195,0.000000,0.896910,-9.938306,
7.388304,-9.925749,0.000000,48.67,48.362,0.000000,0.896910,-9.925749,
7.404804,-9.913641,0.000000,48.833,48.525,0.000000,0.896910,-9.913641,
7.421304,-9.902609,0.000000,49,48.687,0.000000,0.896910,-9.902609,
7.437804,-9.892115,0.000000,49.162,48.854,0.000000,0.896910,-9.892115,
7.454304,-9.880994,0.000000,49.329,49.02,0.000000,0.896910,-9.880994,
7.470804,-9.870141,0.000000,49.491,49.187,0.000000,0.896910,-9.870141,
7.487304,-9.859199,0.000000,49.658,49.354,0.000000,0.896910,-9.859199,
7.503804,-9.847808,0.000000,49.825,49.512,0.000000,0.896910,-9.847808,
7.520304,-9.836417,0.000000,49.987,49.675,0.000000,0.896910,-9.836417,
7.536804,-9.824847,0.000000,50.154,49.845,0.000000,0.896910,-9.824847,
7.553304,-9.814084,0.000000,50.316,50.008,0.000000,0.896910,-9.814084,
7.569804,-9.802962,0.000000,50.483,50.17,0.000000,0.896910,-9.802962,
7.586304,-9.792468,0.000000,50.645,50.337,0.000000,0.896910,-9.792468,
7.602804,-9.782244,0.000000,50.812,50.504,0.000000,0.896910,-9.782244,
7.619304,-9.772467,0.000000,50.975,50.67,0.000000,0.896910,-9.772467,
7.635804,-9.762332,0.000000,51.141,50.833,0.000000,0.896910,-9.762332,
7.652304,-9.751838,0.000000,51.304,51,0.000000,0.896910,-9.751838,
7.668804,-9.741434,0.000000,51.47,51.162,0.000000,0.896910,-9.741434,
7.685304,-9.730671,0.000000,51.633,51.325,0.000000,0.896910,-9.730671,
7.701804,-9.718832,0.000000,51.8,51.491,0.000000,0.896910,-9.718832,
7.718304,-9.707262,0.000000,51.962,51.658,0.000000,0.896910,-9.707262,
7.734804,-9.695692,0.000000,52.129,51.825,0.000000,0.896910,-9.695692,
7.751304,-9.684660,0.000000,52.295,51.987,0.000000,0.896910,-9.684660,
7.767804,-9.673269,0.000000,52.458,52.154,0.000000,0.896910,-9.673269,
7.784304,-9.661789,0.000000,52.625,52.316,0.000000,0.896910,-9.661789,
7.800804,-9.650308,0.000000,52.787,52.479,0.000000,0.896910,-9.650308,
7.817304,-9.638738,0.000000,52.954,52.645,0.000000,0.896910,-9.638738,
7.833804,-9.628513,0.000000,53.116,52.812,0.000000,0.896910,-9.628513,
7.850304,-9.618827,0.000000,53.283,52.975,0.000000,0.896910,-9.618827,
7.866804,-9.608064,0.000000,53.445,53.141,0.000000,0.896910,-9.608064,
7.883304,-9.596852,0.000000,53.612,53.304,0.000000,0.896910,-9.596852,
7.899804,-9.584565,0.000000,53.775,53.47,0.000000,0.896910,-9.584565,
7.916304,-9.572187,0.000000,53.941,53.633,0.000000,0.896910,-9.572187,
7.932804,-9.560079,0.000000,54.104,53.8,0.000000,0.896910,-9.560079,
7.949304,-9.549137,0.000000,54.27,53.966,0.000000,0.896910,-9.549137,
7.965804,-9.538553,0.000000,54.433,54.129,0.000000,0.896910,-9.538553,
7.982304,-9.527790,0.000000,54.6,54.291,0.000000,0.896910,-9.527790,
7.998804,-9.517117,0.000000,54.766,54.458,0.000000,0.896910,-9.517117,
8.015304,-9.505726,0.000000,54.929,54.625,0.000000,0.896910,-9.505726,
8.031804,-9.494874,0.000000,55.095,54.791,0.000000,0.896910,-9.494874,
8.048304,-9.484918,0.000000,55.258,54.954,0.000000,0.896910,-9.484918,
8.064804,-9.474334,0.000000,55.425,55.12,0.000000,0.896910,-9.474334,
8.081304,-9.462047,0.000000,55.587,55.287,0.000000,0.896910,-9.462047,
8.097804,-9.449490,0.000000,55.754,55.445,0.000000,0.896910,-9.449490,
8.114304,-9.437113,0.000000,55.916,55.616,0.000000,0.896910,-9.437113,
8.130804,-9.425542,0.000000,56.083,55.779,0.000000,0.896910,-9.425542,
8.147304,-9.414421,0.000000,56.245,55.945,0.000000,0.896910,-9.414421,
8.163804,-9.403389,0.000000,56.412,56.108,0.000000,0.896910,-9.403389,
8.180304,-9.391908,0.000000,56.575,56.287,0.000000,0.896910,-9.391908,
8.196804,-9.381325,0.000000,56.741,56.429,0.000000,0.896910,-9.381325,
8.213304,-9.370024,0.000000,56.908,56.6,0.000000,0.896910,-9.370024,
8.229804,-9.358902,0.000000,57.07,56.77,0.000000,0.896910,-9.358902,
8.246304,-9.348318,0.000000,57.237,56.933,0.000000,0.896910,-9.348318,
8.262804,-9.337286,0.000000,57.4,57.1,0.000000,0.896910,-9.337286,
8.279304,-9.326165,0.000000,57.566,57.266,0.000000,0.896910,-9.326165,
8.295804,-9.315222,0.000000,57.729,57.425,0.000000,0.896910,-9.315222,
8.312304,-9.304280,0.000000,57.895,57.595,0.000000,0.896910,-9.304280,
8.328804,-9.293069,0.000000,58.058,57.758,0.000000,0.896910,-9.293069,
8.345304,-9.282126,0.000000,58.225,57.925,0.000000,0.896910,-9.282126,
8.361804,-9.270108,0.000000,58.387,58.087,0.000000,0.896910,-9.270108,
8.378304,-9.258538,0.000000,58.554,58.254,0.000000,0.896910,-9.258538,
8.394804,-9.247954,0.000000,58.716,58.42,0.000000,0.896910,-9.247954,
8.411304,-9.238178,0.000000,58.883,58.583,0.000000,0.896910,-9.238178,
8.427804,-9.227235,0.000000,59.045,58.745,0.000000,0.896910,-9.227235,
8.444304,-9.216473,0.000000,59.212,58.916,0.000000,0.896910,-9.216473,
8.460804,-9.205351,0.000000,59.379,59.075,0.000000,0.896910,-9.205351,
8.477304,-9.192884,0.000000,59.541,59.241,0.000000,0.896910,-9.192884,
8.493804,-9.180686,0.000000,59.708,59.408,0.000000,0.896910,-9.180686,
8.510304,-9.169833,0.000000,59.87,59.57,0.000000,0.896910,-9.169833,
8.526804,-9.159339,0.000000,60.037,59.737,0.000000,0.896910,-9.159339,
8.543304,-9.148397,0.000000,60.2,59.904,0.000000,0.896910,-9.148397,
8.559804,-9.137814,0.000000,60.366,60.066,0.000000,0.896910,-9.137814,
8.576304,-9.127858,0.000000,60.529,60.233,0.000000,0.896910,-9.127858,
8.592804,-9.117095,0.000000,60.695,60.4,0.000000,0.896910,-9.117095,
8.609304,-9.105525,0.000000,60.858,60.562,0.000000,0.896910,-9.105525,
8.625804,-9.093506,0.000000,61.025,60.725,0.000000,0.896910,-9.093506,
8.642304,-9.082115,0.000000,61.187,60.891,0.000000,0.896910,-9.082115,
8.658804,-9.070904,0.000000,61.354,61.058,0.000000,0.896910,-9.070904,
8.675304,-9.060590,0.000000,61.516,61.22,0.000000,0.896910,-9.060590,
8.691804,-9.048661,0.000000,61.683,61.387,0.000000,0.896910,-9.048661,
8.708304,-9.037001,0.000000,61.85,61.55,0.000000,0.896910,-9.037001,
8.724804,-9.026507,0.000000,62.012,61.712,0.000000,0.896910,-9.026507,
8.741304,-9.016282,0.000000,62.179,61.883,0.000000,0.896910,-9.016282,
8.757804,-9.006685,0.000000,62.341,62.045,0.000000,0.896910,-9.006685,
8.774304,-8.994846,0.000000,62.508,62.208,0.000000,0.896910,-8.994846,
8.790804,-8.982469,0.000000,62.67,62.375,0.000000,0.896910,-8.982469,
8.807304,-8.970898,0.000000,62.837,62.541,0.000000,0.896910,-8.970898,
8.823804,-8.959687,0.000000,63,62.712,0.000000,0.896910,-8.959687,
8.840304,-8.949014,0.000000,63.166,62.87,0.000000,0.896910,-8.949014,
8.856804,-8.937623,0.000000,63.329,63.033,0.000000,0.896910,-8.937623,
8.873304,-8.924977,0.000000,63.495,63.2,0.000000,0.896910,-8.924977,
8.889804,-8.913137,0.000000,63.658,63.358,0.000000,0.896910,-8.913137,
8.906304,-8.905155,0.000000,63.825,63.529,0.000000,0.896910,-8.905155,
8.922804,-8.897262,0.000000,63.991,63.691,0.000000,0.896910,-8.897262,
8.939304,-8.887755,0.000000,64.154,63.858,0.000000,0.896910,-8.887755,
8.955804,-8.876454,0.000000,64.32,64.025,0.000000,0.896910,-8.876454,
8.972304,-8.864973,0.000000,64.483,64.191,0.000000,0.896910,-8.864973,
8.988804,-8.853044,0.000000,64.65,64.358,0.000000,0.896910,-8.853044,
9.005304,-8.841743,0.000000,64.812,64.516,0.000000,0.896910,-8.841743,
9.021804,-8.832146,0.000000,64.979,64.687,0.000000,0.896910,-8.832146,
9.038304,-8.822639,0.000000,65.141,64.85,0.000000,0.896910,-8.822639,
9.054804,-8.811787,0.000000,65.308,65.016,0.000000,0.896910,-8.811787,
9.071304,-8.800755,0.000000,65.47,65.187,0.000000,0.896910,-8.800755,
9.087804,-8.790350,0.000000,65.637,65.345,0.000000,0.896910,-8.790350,
9.104304,-8.780484,0.000000,65.8,65.512,0.000000,0.896910,-8.780484,
9.120804,-8.768645,0.000000,65.966,65.679,0.000000,0.896910,-8.768645,
9.137304,-8.754205,0.000000,66.129,65.841,0.000000,0.896910,-8.754205,
9.153804,-8.740303,0.000000,66.295,66.008,0.000000,0.896910,-8.740303,
9.170304,-8.727836,0.000000,66.462,66.175,0.000000,0.896910,-8.727836,
9.186804,-8.716266,0.000000,66.625,66.337,0.000000,0.896910,-8.716266,
9.203304,-8.706310,0.000000,66.791,66.504,0.000000,0.896910,-8.706310,
9.219804,-8.696892,0.000000,66.954,66.666,0.000000,0.896910,-8.696892,
9.236304,-8.686937,0.000000,67.12,66.833,0.000000,0.896910,-8.686937,
9.252804,-8.677429,0.000000,67.283,66.995,0.000000,0.896910,-8.677429,
9.269304,-8.667743,0.000000,67.45,67.162,0.000000,0.896910,-8.667743,
9.285804,-8.658774,0.000000,67.612,67.329,0.000000,0.896910,-8.658774,
9.302304,-8.649984,0.000000,67.779,67.495,0.000000,0.896910,-8.649984,
9.318804,-8.639849,0.000000,67.941,67.658,0.000000,0.896910,-8.639849,
9.335304,-8.628907,0.000000,68.108,67.82,0.000000,0.896910,-8.628907,
9.351804,-8.619489,0.000000,68.27,67.987,0.000000,0.896910,-8.619489,
9.368304,-8.609713,0.000000,68.437,68.158,0.000000,0.896910,-8.609713,
9.384804,-8.599847,0.000000,68.6,68.316,0.000000,0.896910,-8.599847,
9.401304,-8.590070,0.000000,68.766,68.483,0.000000,0.896910,-8.590070,
9.417804,-8.582716,0.000000,68.933,68.645,0.000000,0.896910,-8.582716,
9.434304,-8.574733,0.000000,69.095,68.812,0.000000,0.896910,-8.574733,
9.450804,-8.565136,0.000000,69.262,68.975,0.000000,0.896910,-8.565136,
9.467304,-8.555898,0.000000,69.425,69.141,0.000000,0.896910,-8.555898,
9.483804,-8.547288,0.000000,69.591,69.308,0.000000,0.896910,-8.547288,
9.500304,-8.539843,0.000000,69.754,69.47,0.000000,0.896910,-8.539843,
9.516804,-8.532220,0.000000,69.92,69.637,0.000000,0.896910,-8.532220,
9.533304,-8.524596,0.000000,70.083,69.804,0.000000,0.896910,-8.524596,
9.549804,-8.515806,0.000000,70.25,69.966,0.000000,0.896910,-8.515806,
9.566304,-8.503608,0.000000,70.412,70.133,0.000000,0.896910,-8.503608,
9.582804,-8.490693,0.000000,70.579,70.291,0.000000,0.896910,-8.490693,
9.599304,-8.481724,0.000000,70.741,70.458,0.000000,0.896910,-8.481724,
9.615804,-8.476163,0.000000,70.908,70.625,0.000000,0.896910,-8.476163,
9.632304,-8.472485,0.000000,71.075,70.787,0.000000,0.896910,-8.472485,
9.648804,-8.469526,0.000000,71.237,70.95,0.000000,0.896910,-8.469526,
9.665304,-8.465220,0.000000,71.404,71.112,0.000000,0.896910,-8.465220,
9.681804,-8.458852,0.000000,71.566,71.279,0.000000,0.896910,-8.458852,
9.698304,-8.451498,0.000000,71.733,71.445,0.000000,0.896910,-8.451498,
9.714804,-8.442259,0.000000,71.895,71.608,0.000000,0.896910,-8.442259,
9.731304,-8.432932,0.000000,72.062,71.77,0.000000,0.896910,-8.432932,
9.747804,-8.423514,0.000000,72.225,71.937,0.000000,0.896910,-8.423514,
9.764304,-8.415352,0.000000,72.391,72.104,0.000000,0.896910,-8.415352,
9.780804,-8.409881,0.000000,72.554,72.266,0.000000,0.896910,-8.409881,
9.797304,-8.404858,0.000000,72.72,72.425,0.000000,0.896910,-8.404858,
9.813804,-8.399656,0.000000,72.883,72.595,0.000000,0.896910,-8.399656,
9.830304,-8.392122,0.000000,73.05,72.762,0.000000,0.896910,-8.392122,
9.846804,-8.384588,0.000000,73.212,72.929,0.000000,0.896910,-8.384588,
9.863304,-8.378848,0.000000,73.379,73.095,0.000000,0.896910,-8.378848,
9.879804,-8.373018,0.000000,73.545,73.25,0.000000,0.896910,-8.373018,
9.896304,-8.366291,0.000000,73.708,73.42,0.000000,0.896910,-8.366291,
9.912804,-8.359654,0.000000,73.875,73.583,0.000000,0.896910,-8.359654,
9.929304,-8.352568,0.000000,74.037,73.75,0.000000,0.896910,-8.352568,
9.945804,-8.344496,0.000000,74.204,73.912,0.000000,0.896910,-8.344496,
9.962304,-8.336245,0.000000,74.366,74.075,0.000000,0.896910,-8.336245,
9.978804,-8.329159,0.000000,74.533,74.245,0.000000,0.896910,-8.329159,
9.995304,-8.322073,0.000000,74.695,74.408,0.000000,0.896910,-8.322073,
10.0118,-8.315885,0.000000,74.862,74.575,0.000000,0.896910,-8.315885,
10.0283,-8.309427,0.000000,75.025,74.737,0.000000,0.896910,-8.309427,
10.0448,-8.301803,0.000000,75.191,74.904,0.000000,0.896910,-8.301803,
10.0613,-8.294987,0.000000,75.354,75.066,0.000000,0.896910,-8.294987,
10.0778,-8.289157,0.000000,75.52,75.233,0.000000,0.896910,-8.289157,
10.0943,-8.284044,0.000000,75.687,75.4,0.000000,0.896910,-8.284044,
10.1108,-8.279650,0.000000,75.85,75.562,0.000000,0.896910,-8.279650,
10.1273,-8.275524,0.000000,76.016,75.729,0.000000,0.896910,-8.275524,
10.1438,-8.270411,0.000000,76.179,75.891,0.000000,0.896910,-8.270411,
10.1603,-8.263595,0.000000,76.345,76.058,0.000000,0.896910,-8.263595,
10.1768,-8.257137,0.000000,76.508,76.22,0.000000,0.896910,-8.257137,
10.1933,-8.250859,0.000000,76.675,76.383,0.000000,0.896910,-8.250859,
10.2098,-8.245477,0.000000,76.837,76.55,0.000000,0.896910,-8.245477,
10.2263,-8.241082,0.000000,77.004,76.716,0.000000,0.896910,-8.241082,
10.2428,-8.236957,0.000000,77.166,76.883,0.000000,0.896910,-8.236957,
10.2593,-8.233100,0.000000,77.333,77.041,0.000000,0.896910,-8.233100,
10.2758,-8.229871,0.000000,77.495,77.208,0.000000,0.896910,-8.229871,
10.2923,-8.226822,0.000000,77.662,77.37,0.000000,0.896910,-8.226822,
10.3088,-8.221978,0.000000,77.825,77.537,0.000000,0.896910,-8.221978,
10.3253,-8.215162,0.000000,77.991,77.704,0.000000,0.896910,-8.215162,
10.3418,-8.206910,0.000000,78.158,77.866,0.000000,0.896910,-8.206910,
10.3583,-8.199107,0.000000,78.32,78.037,0.000000,0.896910,-8.199107,
10.3748,-8.191842,0.000000,78.487,78.195,0.000000,0.896910,-8.191842,
10.3913,-8.185295,0.000000,78.65,78.362,0.000000,0.896910,-8.185295,
10.4078,-8.179016,0.000000,78.816,78.525,0.000000,0.896910,-8.179016,
10.4243,-8.171931,0.000000,78.979,78.687,0.000000,0.896910,-8.171931,
10.4408,-8.165204,0.000000,79.145,78.854,0.000000,0.896910,-8.165204,
10.4573,-8.157221,0.000000,79.308,79.02,0.000000,0.896910,-8.157221,
10.4738,-8.148790,0.000000,79.475,79.179,0.000000,0.896910,-8.148790,
10.4903,-8.141615,0.000000,79.637,79.35,0.000000,0.896910,-8.141615,
10.5068,-8.134171,0.000000,79.804,79.512,0.000000,0.896910,-8.134171,
10.5233,-8.125740,0.000000,79.966,79.679,0.000000,0.896910,-8.125740,
10.5398,-8.117847,0.000000,80.133,79.837,0.000000,0.896910,-8.117847,
10.5563,-8.110492,0.000000,80.295,80.008,0.000000,0.896910,-8.110492,
10.5728,-8.101882,0.000000,80.462,80.175,0.000000,0.896910,-8.101882,
10.5893,-8.093003,0.000000,80.629,80.333,0.000000,0.896910,-8.093003,
10.6058,-8.084392,0.000000,80.791,80.504,0.000000,0.896910,-8.084392,
10.6223,-8.075064,0.000000,80.958,80.666,0.000000,0.896910,-8.075064,
10.6388,-8.071208,0.000000,81.12,80.829,0.000000,0.896910,-8.071208,
10.6553,-8.072643,0.000000,81.287,80.995,0.000000,0.896910,-8.072643,
10.6718,-8.073001,0.000000,81.45,81.158,0.000000,0.896910,-8.073001,
10.6883,-8.069593,0.000000,81.616,81.32,0.000000,0.896910,-8.069593,
10.7048,-8.065647,0.000000,81.779,81.487,0.000000,0.896910,-8.065647,
10.7213,-8.057395,0.000000,81.945,81.65,0.000000,0.896910,-8.057395,
10.7378,-8.051386,0.000000,82.108,81.816,0.000000,0.896910,-8.051386,
10.7543,-8.047978,0.000000,82.275,81.983,0.000000,0.896910,-8.047978,
10.7708,-8.045018,0.000000,82.437,82.15,0.000000,0.896910,-8.045018,
10.7873,-8.043852,0.000000,82.604,82.312,0.000000,0.896910,-8.043852,
10.8038,-8.044569,0.000000,82.77,82.475,0.000000,0.896910,-8.044569,
10.8203,-8.044928,0.000000,82.933,82.645,0.000000,0.896910,-8.044928,
10.8368,-8.042686,0.000000,83.1,82.804,0.000000,0.896910,-8.042686,
10.8533,-8.036946,0.000000,83.262,82.97,0.000000,0.896910,-8.036946,
10.8698,-8.029950,0.000000,83.429,83.141,0.000000,0.896910,-8.029950,
10.8863,-8.021429,0.000000,83.591,83.3,0.000000,0.896910,-8.021429,
10.9028,-8.013447,0.000000,83.758,83.466,0.000000,0.896910,-8.013447,
10.9193,-8.005643,0.000000,83.92,83.629,0.000000,0.896910,-8.005643,
10.9358,-7.999365,0.000000,84.087,83.8,0.000000,0.896910,-7.999365,
10.9523,-7.993804,0.000000,84.25,83.958,0.000000,0.896910,-7.993804,
10.9688,-7.989320,0.000000,84.416,84.12,0.000000,0.896910,-7.989320,
10.9853,-7.984835,0.000000,84.579,84.291,0.000000,0.896910,-7.984835,
11.0018,-7.980081,0.000000,84.745,84.454,0.000000,0.896910,-7.980081,
11.0183,-7.975328,0.000000,84.908,84.616,0.000000,0.896910,-7.975328,
11.0348,-7.970126,0.000000,85.075,84.783,0.000000,0.896910,-7.970126,
11.0513,-7.964475,0.000000,85.241,84.945,0.000000,0.896910,-7.964475,
11.0678,-7.958645,0.000000,85.404,85.112,0.000000,0.896910,-7.958645,
11.0843,-7.952367,0.000000,85.57,85.279,0.000000,0.896910,-7.952367,
11.1008,-7.946627,0.000000,85.733,85.445,0.000000,0.896910,-7.946627,
11.1173,-7.940528,0.000000,85.9,85.608,0.000000,0.896910,-7.940528,
11.1338,-7.932904,0.000000,86.062,85.766,0.000000,0.896910,-7.932904,
11.1503,-7.925549,0.000000,86.229,85.937,0.000000,0.896910,-7.925549,
11.1668,-7.919630,0.000000,86.391,86.1,0.000000,0.896910,-7.919630,
11.1833,-7.916491,0.000000,86.558,86.266,0.000000,0.896910,-7.916491,
11.1998,-7.913979,0.000000,86.72,86.429,0.000000,0.896910,-7.913979,
11.2163,-7.908867,0.000000,86.887,86.591,0.000000,0.896910,-7.908867,
11.2328,-7.903306,0.000000,87.05,86.762,0.000000,0.896910,-7.903306,
11.2493,-7.896131,0.000000,87.216,86.925,0.000000,0.896910,-7.896131,
11.2658,-7.888776,0.000000,87.379,87.091,0.000000,0.896910,-7.888776,
11.2823,-7.883574,0.000000,87.545,87.254,0.000000,0.896910,-7.883574,
11.2988,-7.877475,0.000000,87.712,87.416,0.000000,0.896910,-7.877475,
11.3153,-7.872990,0.000000,87.875,87.579,0.000000,0.896910,-7.872990,
11.3318,-7.871824,0.000000,88.041,87.75,0.000000,0.896910,-7.871824,
11.3483,-7.872183,0.000000,88.204,87.912,0.000000,0.896910,-7.872183,
11.3648,-7.870300,0.000000,88.37,88.079,0.000000,0.896910,-7.870300,
11.3813,-7.866622,0.000000,88.533,88.237,0.000000,0.896910,-7.866622,
11.3978,-7.862855,0.000000,88.7,88.404,0.000000,0.896910,-7.862855,
11.4143,-7.860972,0.000000,88.862,88.57,0.000000,0.896910,-7.860972,
11.4308,-7.858102,0.000000,89.029,88.733,0.000000,0.896910,-7.858102,
11.4473,-7.851465,0.000000,89.191,88.9,0.000000,0.896910,-7.851465,
11.4638,-7.845814,0.000000,89.358,89.062,0.000000,0.896910,-7.845814,
11.4803,-7.842765,0.000000,89.52,89.225,0.000000,0.896910,-7.842765,
11.4968,-7.841509,0.000000,89.687,89.395,0.000000,0.896910,-7.841509,
11.5133,-7.840971,0.000000,89.854,89.558,0.000000,0.896910,-7.840971,
11.5253,-7.840522,0.000000,89.97,89.675,0.000000,0.896910,-7.840522,